success,rt,trial_type,trial_index,plugin_version,time_elapsed,random_id,participant,response,stimulus,timeout,failed_images,failed_audio,failed_video,trial_phase,repeated,correct,choice_images,correct_image,choice,slider_start,file_name
TRUE,898177,fullscreen,0,2.0.0,899195,p3duj2aujg2,manatee,NA,NA,NA,NA,NA,NA,NA,NA,NA,NA,NA,NA,NA,/Users/martincz/GitHub/COGS119/group_fa24_massive_memory/analysis/../data/raw_data/p3duj2aujg2_1732482453733.csv
NA,3595,survey-text,1,2.0.0,902796,p3duj2aujg2,manatee,"{""participant_id"":""manatee""}",NA,NA,NA,NA,NA,NA,NA,NA,NA,NA,NA,NA,/Users/martincz/GitHub/COGS119/group_fa24_massive_memory/analysis/../data/raw_data/p3duj2aujg2_1732482453733.csv
NA,781,html-keyboard-response,2,2.0.0,903578,p3duj2aujg2,manatee,Enter,<p>Welcome to the Massive Memory Experiment. Press any key to move on. </p>,NA,NA,NA,NA,NA,NA,NA,NA,NA,NA,NA,/Users/martincz/GitHub/COGS119/group_fa24_massive_memory/analysis/../data/raw_data/p3duj2aujg2_1732482453733.csv
NA,18395,html-keyboard-response,3,2.0.0,921974,p3duj2aujg2,manatee,NA,"
      <div style='width:900px;margin: auto;'><p>In the first section you will see a stream of images, with fixation crosses in between each image.</p>
      <p>Each image will remain on screen for 2 seconds. Your job is to detect images that you have seen before within the experiment. Whenever you see an image that you have seen previously <b>at any point in the stream of images</b>, press the spacebar.</p>
      <p>We will let you know if you have correctly or falsely clicked the spacebar on an image by changing the color of the fixation cross.</p>
      <p>If you press the spacebar correctly (the image really did appear earlier), the fixation cross will turn green. If you pressed the spacebar incorrectly, the fixation cross will turn red.</p>
      <p>Please watch carefully to detect the images that show up again!</p>
      <p>Press any key to start.</p></div>
",NA,NA,NA,NA,NA,NA,NA,NA,NA,NA,NA,/Users/martincz/GitHub/COGS119/group_fa24_massive_memory/analysis/../data/raw_data/p3duj2aujg2_1732482453733.csv
TRUE,NA,preload,4,2.0.0,922914,p3duj2aujg2,manatee,NA,NA,FALSE,[],[],[],NA,NA,NA,NA,NA,NA,NA,/Users/martincz/GitHub/COGS119/group_fa24_massive_memory/analysis/../data/raw_data/p3duj2aujg2_1732482453733.csv
NA,null,image-keyboard-response,5,2.0.0,924923,p3duj2aujg2,manatee,null,stimuli\EXEMPLAR\USED\Esunglasses2.jpg,NA,NA,NA,NA,Memory,FALSE,null,NA,NA,NA,NA,/Users/martincz/GitHub/COGS119/group_fa24_massive_memory/analysis/../data/raw_data/p3duj2aujg2_1732482453733.csv
NA,null,html-keyboard-response,6,2.0.0,925434,p3duj2aujg2,manatee,null,"<div style=""font-size:60px; color: black;"">+</div>",NA,NA,NA,NA,NA,NA,NA,NA,NA,NA,NA,/Users/martincz/GitHub/COGS119/group_fa24_massive_memory/analysis/../data/raw_data/p3duj2aujg2_1732482453733.csv
NA,null,image-keyboard-response,7,2.0.0,927451,p3duj2aujg2,manatee,null,stimuli\EXEMPLAR\USED\Etoyhand2.jpg,NA,NA,NA,NA,Memory,FALSE,null,NA,NA,NA,NA,/Users/martincz/GitHub/COGS119/group_fa24_massive_memory/analysis/../data/raw_data/p3duj2aujg2_1732482453733.csv
NA,null,html-keyboard-response,8,2.0.0,927966,p3duj2aujg2,manatee,null,"<div style=""font-size:60px; color: black;"">+</div>",NA,NA,NA,NA,NA,NA,NA,NA,NA,NA,NA,/Users/martincz/GitHub/COGS119/group_fa24_massive_memory/analysis/../data/raw_data/p3duj2aujg2_1732482453733.csv
NA,null,image-keyboard-response,9,2.0.0,929970,p3duj2aujg2,manatee,null,stimuli\STATE\USED\Slockbox2.jpg,NA,NA,NA,NA,Memory,FALSE,null,NA,NA,NA,NA,/Users/martincz/GitHub/COGS119/group_fa24_massive_memory/analysis/../data/raw_data/p3duj2aujg2_1732482453733.csv
NA,null,html-keyboard-response,10,2.0.0,930477,p3duj2aujg2,manatee,null,"<div style=""font-size:60px; color: black;"">+</div>",NA,NA,NA,NA,NA,NA,NA,NA,NA,NA,NA,/Users/martincz/GitHub/COGS119/group_fa24_massive_memory/analysis/../data/raw_data/p3duj2aujg2_1732482453733.csv
NA,null,image-keyboard-response,11,2.0.0,932487,p3duj2aujg2,manatee,null,stimuli\STATE\USED\Sgrinder1.jpg,NA,NA,NA,NA,Memory,FALSE,null,NA,NA,NA,NA,/Users/martincz/GitHub/COGS119/group_fa24_massive_memory/analysis/../data/raw_data/p3duj2aujg2_1732482453733.csv
NA,null,html-keyboard-response,12,2.0.0,932989,p3duj2aujg2,manatee,null,"<div style=""font-size:60px; color: black;"">+</div>",NA,NA,NA,NA,NA,NA,NA,NA,NA,NA,NA,/Users/martincz/GitHub/COGS119/group_fa24_massive_memory/analysis/../data/raw_data/p3duj2aujg2_1732482453733.csv
NA,null,image-keyboard-response,13,2.0.0,934993,p3duj2aujg2,manatee,null,stimuli\STATE\USED\Sdishes1.JPG,NA,NA,NA,NA,Memory,FALSE,null,NA,NA,NA,NA,/Users/martincz/GitHub/COGS119/group_fa24_massive_memory/analysis/../data/raw_data/p3duj2aujg2_1732482453733.csv
NA,null,html-keyboard-response,14,2.0.0,935499,p3duj2aujg2,manatee,null,"<div style=""font-size:60px; color: black;"">+</div>",NA,NA,NA,NA,NA,NA,NA,NA,NA,NA,NA,/Users/martincz/GitHub/COGS119/group_fa24_massive_memory/analysis/../data/raw_data/p3duj2aujg2_1732482453733.csv
NA,null,image-keyboard-response,15,2.0.0,937505,p3duj2aujg2,manatee,null,stimuli\EXEMPLAR\USED\Etrophy2.jpg,NA,NA,NA,NA,Memory,FALSE,null,NA,NA,NA,NA,/Users/martincz/GitHub/COGS119/group_fa24_massive_memory/analysis/../data/raw_data/p3duj2aujg2_1732482453733.csv
NA,null,html-keyboard-response,16,2.0.0,938022,p3duj2aujg2,manatee,null,"<div style=""font-size:60px; color: black;"">+</div>",NA,NA,NA,NA,NA,NA,NA,NA,NA,NA,NA,/Users/martincz/GitHub/COGS119/group_fa24_massive_memory/analysis/../data/raw_data/p3duj2aujg2_1732482453733.csv
NA,null,image-keyboard-response,17,2.0.0,940036,p3duj2aujg2,manatee,null,stimuli\EXEMPLAR\USED\Ebracelet1.jpg,NA,NA,NA,NA,Memory,FALSE,null,NA,NA,NA,NA,/Users/martincz/GitHub/COGS119/group_fa24_massive_memory/analysis/../data/raw_data/p3duj2aujg2_1732482453733.csv
NA,null,html-keyboard-response,18,2.0.0,940551,p3duj2aujg2,manatee,null,"<div style=""font-size:60px; color: black;"">+</div>",NA,NA,NA,NA,NA,NA,NA,NA,NA,NA,NA,/Users/martincz/GitHub/COGS119/group_fa24_massive_memory/analysis/../data/raw_data/p3duj2aujg2_1732482453733.csv
NA,null,image-keyboard-response,19,2.0.0,942564,p3duj2aujg2,manatee,null,stimuli\STATE\USED\Sdrum2.jpg,NA,NA,NA,NA,Memory,FALSE,null,NA,NA,NA,NA,/Users/martincz/GitHub/COGS119/group_fa24_massive_memory/analysis/../data/raw_data/p3duj2aujg2_1732482453733.csv
NA,null,html-keyboard-response,20,2.0.0,943080,p3duj2aujg2,manatee,null,"<div style=""font-size:60px; color: black;"">+</div>",NA,NA,NA,NA,NA,NA,NA,NA,NA,NA,NA,/Users/martincz/GitHub/COGS119/group_fa24_massive_memory/analysis/../data/raw_data/p3duj2aujg2_1732482453733.csv
NA,null,image-keyboard-response,21,2.0.0,945097,p3duj2aujg2,manatee,null,stimuli\EXEMPLAR\USED\Ehoe2.jpg,NA,NA,NA,NA,Memory,FALSE,null,NA,NA,NA,NA,/Users/martincz/GitHub/COGS119/group_fa24_massive_memory/analysis/../data/raw_data/p3duj2aujg2_1732482453733.csv
NA,null,html-keyboard-response,22,2.0.0,945600,p3duj2aujg2,manatee,null,"<div style=""font-size:60px; color: black;"">+</div>",NA,NA,NA,NA,NA,NA,NA,NA,NA,NA,NA,/Users/martincz/GitHub/COGS119/group_fa24_massive_memory/analysis/../data/raw_data/p3duj2aujg2_1732482453733.csv
NA,null,image-keyboard-response,23,2.0.0,947614,p3duj2aujg2,manatee,null,stimuli\STATE\USED\Sbriefcasemetal1.JPG,NA,NA,NA,NA,Memory,FALSE,null,NA,NA,NA,NA,/Users/martincz/GitHub/COGS119/group_fa24_massive_memory/analysis/../data/raw_data/p3duj2aujg2_1732482453733.csv
NA,null,html-keyboard-response,24,2.0.0,948129,p3duj2aujg2,manatee,null,"<div style=""font-size:60px; color: black;"">+</div>",NA,NA,NA,NA,NA,NA,NA,NA,NA,NA,NA,/Users/martincz/GitHub/COGS119/group_fa24_massive_memory/analysis/../data/raw_data/p3duj2aujg2_1732482453733.csv
NA,728,image-keyboard-response,25,2.0.0,950139,p3duj2aujg2,manatee,NA,stimuli\EXEMPLAR\USED\Ebracelet1.jpg,NA,NA,NA,NA,Memory,TRUE,true,NA,NA,NA,NA,/Users/martincz/GitHub/COGS119/group_fa24_massive_memory/analysis/../data/raw_data/p3duj2aujg2_1732482453733.csv
NA,null,html-keyboard-response,26,2.0.0,950648,p3duj2aujg2,manatee,null,"<div style=""font-size:60px; color: green;"">+</div>",NA,NA,NA,NA,NA,NA,NA,NA,NA,NA,NA,/Users/martincz/GitHub/COGS119/group_fa24_massive_memory/analysis/../data/raw_data/p3duj2aujg2_1732482453733.csv
NA,null,image-keyboard-response,27,2.0.0,952654,p3duj2aujg2,manatee,null,stimuli\STATE\USED\Sbelt1.jpg,NA,NA,NA,NA,Memory,FALSE,null,NA,NA,NA,NA,/Users/martincz/GitHub/COGS119/group_fa24_massive_memory/analysis/../data/raw_data/p3duj2aujg2_1732482453733.csv
NA,null,html-keyboard-response,28,2.0.0,953166,p3duj2aujg2,manatee,null,"<div style=""font-size:60px; color: black;"">+</div>",NA,NA,NA,NA,NA,NA,NA,NA,NA,NA,NA,/Users/martincz/GitHub/COGS119/group_fa24_massive_memory/analysis/../data/raw_data/p3duj2aujg2_1732482453733.csv
NA,null,image-keyboard-response,29,2.0.0,955174,p3duj2aujg2,manatee,null,stimuli\STATE\USED\Schinesefoodbox2.jpg,NA,NA,NA,NA,Memory,FALSE,null,NA,NA,NA,NA,/Users/martincz/GitHub/COGS119/group_fa24_massive_memory/analysis/../data/raw_data/p3duj2aujg2_1732482453733.csv
NA,null,html-keyboard-response,30,2.0.0,955682,p3duj2aujg2,manatee,null,"<div style=""font-size:60px; color: black;"">+</div>",NA,NA,NA,NA,NA,NA,NA,NA,NA,NA,NA,/Users/martincz/GitHub/COGS119/group_fa24_massive_memory/analysis/../data/raw_data/p3duj2aujg2_1732482453733.csv
NA,null,image-keyboard-response,31,2.0.0,957694,p3duj2aujg2,manatee,null,stimuli\EXEMPLAR\USED\Ecalculator1.jpg,NA,NA,NA,NA,Memory,FALSE,null,NA,NA,NA,NA,/Users/martincz/GitHub/COGS119/group_fa24_massive_memory/analysis/../data/raw_data/p3duj2aujg2_1732482453733.csv
NA,null,html-keyboard-response,32,2.0.0,958202,p3duj2aujg2,manatee,null,"<div style=""font-size:60px; color: black;"">+</div>",NA,NA,NA,NA,NA,NA,NA,NA,NA,NA,NA,/Users/martincz/GitHub/COGS119/group_fa24_massive_memory/analysis/../data/raw_data/p3duj2aujg2_1732482453733.csv
NA,null,image-keyboard-response,33,2.0.0,960212,p3duj2aujg2,manatee,null,stimuli\EXEMPLAR\USED\Estapler2.jpg,NA,NA,NA,NA,Memory,FALSE,null,NA,NA,NA,NA,/Users/martincz/GitHub/COGS119/group_fa24_massive_memory/analysis/../data/raw_data/p3duj2aujg2_1732482453733.csv
NA,null,html-keyboard-response,34,2.0.0,960715,p3duj2aujg2,manatee,null,"<div style=""font-size:60px; color: black;"">+</div>",NA,NA,NA,NA,NA,NA,NA,NA,NA,NA,NA,/Users/martincz/GitHub/COGS119/group_fa24_massive_memory/analysis/../data/raw_data/p3duj2aujg2_1732482453733.csv
NA,null,image-keyboard-response,35,2.0.0,962732,p3duj2aujg2,manatee,null,stimuli\EXEMPLAR\USED\Emitt1.jpg,NA,NA,NA,NA,Memory,FALSE,null,NA,NA,NA,NA,/Users/martincz/GitHub/COGS119/group_fa24_massive_memory/analysis/../data/raw_data/p3duj2aujg2_1732482453733.csv
NA,null,html-keyboard-response,36,2.0.0,963248,p3duj2aujg2,manatee,null,"<div style=""font-size:60px; color: black;"">+</div>",NA,NA,NA,NA,NA,NA,NA,NA,NA,NA,NA,/Users/martincz/GitHub/COGS119/group_fa24_massive_memory/analysis/../data/raw_data/p3duj2aujg2_1732482453733.csv
NA,null,image-keyboard-response,37,2.0.0,965252,p3duj2aujg2,manatee,null,stimuli\STATE\USED\Sdie1.jpg,NA,NA,NA,NA,Memory,FALSE,null,NA,NA,NA,NA,/Users/martincz/GitHub/COGS119/group_fa24_massive_memory/analysis/../data/raw_data/p3duj2aujg2_1732482453733.csv
NA,null,html-keyboard-response,38,2.0.0,965758,p3duj2aujg2,manatee,null,"<div style=""font-size:60px; color: black;"">+</div>",NA,NA,NA,NA,NA,NA,NA,NA,NA,NA,NA,/Users/martincz/GitHub/COGS119/group_fa24_massive_memory/analysis/../data/raw_data/p3duj2aujg2_1732482453733.csv
NA,null,image-keyboard-response,39,2.0.0,967766,p3duj2aujg2,manatee,null,stimuli\EXEMPLAR\USED\Etrain2.jpg,NA,NA,NA,NA,Memory,FALSE,null,NA,NA,NA,NA,/Users/martincz/GitHub/COGS119/group_fa24_massive_memory/analysis/../data/raw_data/p3duj2aujg2_1732482453733.csv
NA,null,html-keyboard-response,40,2.0.0,968267,p3duj2aujg2,manatee,null,"<div style=""font-size:60px; color: black;"">+</div>",NA,NA,NA,NA,NA,NA,NA,NA,NA,NA,NA,/Users/martincz/GitHub/COGS119/group_fa24_massive_memory/analysis/../data/raw_data/p3duj2aujg2_1732482453733.csv
NA,null,image-keyboard-response,41,2.0.0,970275,p3duj2aujg2,manatee,null,stimuli\EXEMPLAR\USED\Etoyplane1.jpg,NA,NA,NA,NA,Memory,FALSE,null,NA,NA,NA,NA,/Users/martincz/GitHub/COGS119/group_fa24_massive_memory/analysis/../data/raw_data/p3duj2aujg2_1732482453733.csv
NA,null,html-keyboard-response,42,2.0.0,970782,p3duj2aujg2,manatee,null,"<div style=""font-size:60px; color: black;"">+</div>",NA,NA,NA,NA,NA,NA,NA,NA,NA,NA,NA,/Users/martincz/GitHub/COGS119/group_fa24_massive_memory/analysis/../data/raw_data/p3duj2aujg2_1732482453733.csv
NA,null,image-keyboard-response,43,2.0.0,972784,p3duj2aujg2,manatee,null,stimuli\STATE\USED\Sskull2.jpg,NA,NA,NA,NA,Memory,FALSE,null,NA,NA,NA,NA,/Users/martincz/GitHub/COGS119/group_fa24_massive_memory/analysis/../data/raw_data/p3duj2aujg2_1732482453733.csv
NA,null,html-keyboard-response,44,2.0.0,973292,p3duj2aujg2,manatee,null,"<div style=""font-size:60px; color: black;"">+</div>",NA,NA,NA,NA,NA,NA,NA,NA,NA,NA,NA,/Users/martincz/GitHub/COGS119/group_fa24_massive_memory/analysis/../data/raw_data/p3duj2aujg2_1732482453733.csv
NA,null,image-keyboard-response,45,2.0.0,975305,p3duj2aujg2,manatee,null,stimuli\EXEMPLAR\USED\Epiano2.jpg,NA,NA,NA,NA,Memory,FALSE,null,NA,NA,NA,NA,/Users/martincz/GitHub/COGS119/group_fa24_massive_memory/analysis/../data/raw_data/p3duj2aujg2_1732482453733.csv
NA,null,html-keyboard-response,46,2.0.0,975815,p3duj2aujg2,manatee,null,"<div style=""font-size:60px; color: black;"">+</div>",NA,NA,NA,NA,NA,NA,NA,NA,NA,NA,NA,/Users/martincz/GitHub/COGS119/group_fa24_massive_memory/analysis/../data/raw_data/p3duj2aujg2_1732482453733.csv
NA,665,image-keyboard-response,47,2.0.0,977824,p3duj2aujg2,manatee,NA,stimuli\EXEMPLAR\USED\Etrain2.jpg,NA,NA,NA,NA,Memory,TRUE,true,NA,NA,NA,NA,/Users/martincz/GitHub/COGS119/group_fa24_massive_memory/analysis/../data/raw_data/p3duj2aujg2_1732482453733.csv
NA,null,html-keyboard-response,48,2.0.0,978327,p3duj2aujg2,manatee,null,"<div style=""font-size:60px; color: green;"">+</div>",NA,NA,NA,NA,NA,NA,NA,NA,NA,NA,NA,/Users/martincz/GitHub/COGS119/group_fa24_massive_memory/analysis/../data/raw_data/p3duj2aujg2_1732482453733.csv
NA,null,image-keyboard-response,49,2.0.0,980331,p3duj2aujg2,manatee,null,stimuli\STATE\USED\Sjuiceglass1.JPG,NA,NA,NA,NA,Memory,FALSE,null,NA,NA,NA,NA,/Users/martincz/GitHub/COGS119/group_fa24_massive_memory/analysis/../data/raw_data/p3duj2aujg2_1732482453733.csv
NA,null,html-keyboard-response,50,2.0.0,980839,p3duj2aujg2,manatee,null,"<div style=""font-size:60px; color: black;"">+</div>",NA,NA,NA,NA,NA,NA,NA,NA,NA,NA,NA,/Users/martincz/GitHub/COGS119/group_fa24_massive_memory/analysis/../data/raw_data/p3duj2aujg2_1732482453733.csv
NA,null,image-keyboard-response,51,2.0.0,982845,p3duj2aujg2,manatee,null,stimuli\EXEMPLAR\USED\Ebread2.jpg,NA,NA,NA,NA,Memory,FALSE,null,NA,NA,NA,NA,/Users/martincz/GitHub/COGS119/group_fa24_massive_memory/analysis/../data/raw_data/p3duj2aujg2_1732482453733.csv
NA,null,html-keyboard-response,52,2.0.0,983352,p3duj2aujg2,manatee,null,"<div style=""font-size:60px; color: black;"">+</div>",NA,NA,NA,NA,NA,NA,NA,NA,NA,NA,NA,/Users/martincz/GitHub/COGS119/group_fa24_massive_memory/analysis/../data/raw_data/p3duj2aujg2_1732482453733.csv
NA,null,image-keyboard-response,53,2.0.0,985363,p3duj2aujg2,manatee,null,stimuli\STATE\USED\Sdresser1.jpg,NA,NA,NA,NA,Memory,FALSE,null,NA,NA,NA,NA,/Users/martincz/GitHub/COGS119/group_fa24_massive_memory/analysis/../data/raw_data/p3duj2aujg2_1732482453733.csv
NA,null,html-keyboard-response,54,2.0.0,985876,p3duj2aujg2,manatee,null,"<div style=""font-size:60px; color: black;"">+</div>",NA,NA,NA,NA,NA,NA,NA,NA,NA,NA,NA,/Users/martincz/GitHub/COGS119/group_fa24_massive_memory/analysis/../data/raw_data/p3duj2aujg2_1732482453733.csv
NA,null,image-keyboard-response,55,2.0.0,987883,p3duj2aujg2,manatee,null,stimuli\STATE\USED\Sbrie1.JPG,NA,NA,NA,NA,Memory,FALSE,null,NA,NA,NA,NA,/Users/martincz/GitHub/COGS119/group_fa24_massive_memory/analysis/../data/raw_data/p3duj2aujg2_1732482453733.csv
NA,null,html-keyboard-response,56,2.0.0,988395,p3duj2aujg2,manatee,null,"<div style=""font-size:60px; color: black;"">+</div>",NA,NA,NA,NA,NA,NA,NA,NA,NA,NA,NA,/Users/martincz/GitHub/COGS119/group_fa24_massive_memory/analysis/../data/raw_data/p3duj2aujg2_1732482453733.csv
NA,null,image-keyboard-response,57,2.0.0,990409,p3duj2aujg2,manatee,null,stimuli\EXEMPLAR\USED\Emuffin2.jpg,NA,NA,NA,NA,Memory,FALSE,null,NA,NA,NA,NA,/Users/martincz/GitHub/COGS119/group_fa24_massive_memory/analysis/../data/raw_data/p3duj2aujg2_1732482453733.csv
NA,null,html-keyboard-response,58,2.0.0,990918,p3duj2aujg2,manatee,null,"<div style=""font-size:60px; color: black;"">+</div>",NA,NA,NA,NA,NA,NA,NA,NA,NA,NA,NA,/Users/martincz/GitHub/COGS119/group_fa24_massive_memory/analysis/../data/raw_data/p3duj2aujg2_1732482453733.csv
NA,null,image-keyboard-response,59,2.0.0,992929,p3duj2aujg2,manatee,null,stimuli\EXEMPLAR\USED\Epeppers2.jpg,NA,NA,NA,NA,Memory,FALSE,null,NA,NA,NA,NA,/Users/martincz/GitHub/COGS119/group_fa24_massive_memory/analysis/../data/raw_data/p3duj2aujg2_1732482453733.csv
NA,null,html-keyboard-response,60,2.0.0,993438,p3duj2aujg2,manatee,null,"<div style=""font-size:60px; color: black;"">+</div>",NA,NA,NA,NA,NA,NA,NA,NA,NA,NA,NA,/Users/martincz/GitHub/COGS119/group_fa24_massive_memory/analysis/../data/raw_data/p3duj2aujg2_1732482453733.csv
NA,null,image-keyboard-response,61,2.0.0,995442,p3duj2aujg2,manatee,null,stimuli\STATE\USED\Sphone2.JPG,NA,NA,NA,NA,Memory,FALSE,null,NA,NA,NA,NA,/Users/martincz/GitHub/COGS119/group_fa24_massive_memory/analysis/../data/raw_data/p3duj2aujg2_1732482453733.csv
NA,null,html-keyboard-response,62,2.0.0,995954,p3duj2aujg2,manatee,null,"<div style=""font-size:60px; color: black;"">+</div>",NA,NA,NA,NA,NA,NA,NA,NA,NA,NA,NA,/Users/martincz/GitHub/COGS119/group_fa24_massive_memory/analysis/../data/raw_data/p3duj2aujg2_1732482453733.csv
NA,null,image-keyboard-response,63,2.0.0,997965,p3duj2aujg2,manatee,null,stimuli\EXEMPLAR\USED\Ebonzai2.jpg,NA,NA,NA,NA,Memory,FALSE,null,NA,NA,NA,NA,/Users/martincz/GitHub/COGS119/group_fa24_massive_memory/analysis/../data/raw_data/p3duj2aujg2_1732482453733.csv
NA,null,html-keyboard-response,64,2.0.0,998471,p3duj2aujg2,manatee,null,"<div style=""font-size:60px; color: black;"">+</div>",NA,NA,NA,NA,NA,NA,NA,NA,NA,NA,NA,/Users/martincz/GitHub/COGS119/group_fa24_massive_memory/analysis/../data/raw_data/p3duj2aujg2_1732482453733.csv
NA,null,image-keyboard-response,65,2.0.0,1000489,p3duj2aujg2,manatee,null,stimuli\EXEMPLAR\USED\Escroll1.jpg,NA,NA,NA,NA,Memory,FALSE,null,NA,NA,NA,NA,/Users/martincz/GitHub/COGS119/group_fa24_massive_memory/analysis/../data/raw_data/p3duj2aujg2_1732482453733.csv
NA,null,html-keyboard-response,66,2.0.0,1000995,p3duj2aujg2,manatee,null,"<div style=""font-size:60px; color: black;"">+</div>",NA,NA,NA,NA,NA,NA,NA,NA,NA,NA,NA,/Users/martincz/GitHub/COGS119/group_fa24_massive_memory/analysis/../data/raw_data/p3duj2aujg2_1732482453733.csv
NA,703,image-keyboard-response,67,2.0.0,1003006,p3duj2aujg2,manatee,NA,stimuli\EXEMPLAR\USED\Epeppers2.jpg,NA,NA,NA,NA,Memory,TRUE,true,NA,NA,NA,NA,/Users/martincz/GitHub/COGS119/group_fa24_massive_memory/analysis/../data/raw_data/p3duj2aujg2_1732482453733.csv
NA,null,html-keyboard-response,68,2.0.0,1003523,p3duj2aujg2,manatee,null,"<div style=""font-size:60px; color: green;"">+</div>",NA,NA,NA,NA,NA,NA,NA,NA,NA,NA,NA,/Users/martincz/GitHub/COGS119/group_fa24_massive_memory/analysis/../data/raw_data/p3duj2aujg2_1732482453733.csv
NA,null,image-keyboard-response,69,2.0.0,1005540,p3duj2aujg2,manatee,null,stimuli\EXEMPLAR\USED\Eholepunch2.jpg,NA,NA,NA,NA,Memory,FALSE,null,NA,NA,NA,NA,/Users/martincz/GitHub/COGS119/group_fa24_massive_memory/analysis/../data/raw_data/p3duj2aujg2_1732482453733.csv
NA,null,html-keyboard-response,70,2.0.0,1006041,p3duj2aujg2,manatee,null,"<div style=""font-size:60px; color: black;"">+</div>",NA,NA,NA,NA,NA,NA,NA,NA,NA,NA,NA,/Users/martincz/GitHub/COGS119/group_fa24_massive_memory/analysis/../data/raw_data/p3duj2aujg2_1732482453733.csv
NA,null,image-keyboard-response,71,2.0.0,1008047,p3duj2aujg2,manatee,null,stimuli\STATE\USED\Sdryer1.jpg,NA,NA,NA,NA,Memory,FALSE,null,NA,NA,NA,NA,/Users/martincz/GitHub/COGS119/group_fa24_massive_memory/analysis/../data/raw_data/p3duj2aujg2_1732482453733.csv
NA,null,html-keyboard-response,72,2.0.0,1008551,p3duj2aujg2,manatee,null,"<div style=""font-size:60px; color: black;"">+</div>",NA,NA,NA,NA,NA,NA,NA,NA,NA,NA,NA,/Users/martincz/GitHub/COGS119/group_fa24_massive_memory/analysis/../data/raw_data/p3duj2aujg2_1732482453733.csv
NA,null,image-keyboard-response,73,2.0.0,1010553,p3duj2aujg2,manatee,null,stimuli\EXEMPLAR\USED\Echocolatebar2.jpg,NA,NA,NA,NA,Memory,FALSE,null,NA,NA,NA,NA,/Users/martincz/GitHub/COGS119/group_fa24_massive_memory/analysis/../data/raw_data/p3duj2aujg2_1732482453733.csv
NA,null,html-keyboard-response,74,2.0.0,1011063,p3duj2aujg2,manatee,null,"<div style=""font-size:60px; color: black;"">+</div>",NA,NA,NA,NA,NA,NA,NA,NA,NA,NA,NA,/Users/martincz/GitHub/COGS119/group_fa24_massive_memory/analysis/../data/raw_data/p3duj2aujg2_1732482453733.csv
NA,null,image-keyboard-response,75,2.0.0,1013080,p3duj2aujg2,manatee,null,stimuli\STATE\USED\Ssweater2.jpg,NA,NA,NA,NA,Memory,FALSE,null,NA,NA,NA,NA,/Users/martincz/GitHub/COGS119/group_fa24_massive_memory/analysis/../data/raw_data/p3duj2aujg2_1732482453733.csv
NA,null,html-keyboard-response,76,2.0.0,1013585,p3duj2aujg2,manatee,null,"<div style=""font-size:60px; color: black;"">+</div>",NA,NA,NA,NA,NA,NA,NA,NA,NA,NA,NA,/Users/martincz/GitHub/COGS119/group_fa24_massive_memory/analysis/../data/raw_data/p3duj2aujg2_1732482453733.csv
NA,null,image-keyboard-response,77,2.0.0,1015588,p3duj2aujg2,manatee,null,stimuli\STATE\USED\Sscissors2.JPG,NA,NA,NA,NA,Memory,FALSE,null,NA,NA,NA,NA,/Users/martincz/GitHub/COGS119/group_fa24_massive_memory/analysis/../data/raw_data/p3duj2aujg2_1732482453733.csv
NA,null,html-keyboard-response,78,2.0.0,1016105,p3duj2aujg2,manatee,null,"<div style=""font-size:60px; color: black;"">+</div>",NA,NA,NA,NA,NA,NA,NA,NA,NA,NA,NA,/Users/martincz/GitHub/COGS119/group_fa24_massive_memory/analysis/../data/raw_data/p3duj2aujg2_1732482453733.csv
NA,null,image-keyboard-response,79,2.0.0,1018118,p3duj2aujg2,manatee,null,stimuli\STATE\USED\Spadlock2.jpg,NA,NA,NA,NA,Memory,FALSE,null,NA,NA,NA,NA,/Users/martincz/GitHub/COGS119/group_fa24_massive_memory/analysis/../data/raw_data/p3duj2aujg2_1732482453733.csv
NA,null,html-keyboard-response,80,2.0.0,1018626,p3duj2aujg2,manatee,null,"<div style=""font-size:60px; color: black;"">+</div>",NA,NA,NA,NA,NA,NA,NA,NA,NA,NA,NA,/Users/martincz/GitHub/COGS119/group_fa24_massive_memory/analysis/../data/raw_data/p3duj2aujg2_1732482453733.csv
NA,null,image-keyboard-response,81,2.0.0,1020634,p3duj2aujg2,manatee,null,stimuli\STATE\USED\Sapplesgreenbasket2.jpg,NA,NA,NA,NA,Memory,FALSE,null,NA,NA,NA,NA,/Users/martincz/GitHub/COGS119/group_fa24_massive_memory/analysis/../data/raw_data/p3duj2aujg2_1732482453733.csv
NA,null,html-keyboard-response,82,2.0.0,1021145,p3duj2aujg2,manatee,null,"<div style=""font-size:60px; color: black;"">+</div>",NA,NA,NA,NA,NA,NA,NA,NA,NA,NA,NA,/Users/martincz/GitHub/COGS119/group_fa24_massive_memory/analysis/../data/raw_data/p3duj2aujg2_1732482453733.csv
NA,null,image-keyboard-response,83,2.0.0,1023154,p3duj2aujg2,manatee,null,stimuli\EXEMPLAR\USED\Elog1.jpg,NA,NA,NA,NA,Memory,FALSE,null,NA,NA,NA,NA,/Users/martincz/GitHub/COGS119/group_fa24_massive_memory/analysis/../data/raw_data/p3duj2aujg2_1732482453733.csv
NA,null,html-keyboard-response,84,2.0.0,1023660,p3duj2aujg2,manatee,null,"<div style=""font-size:60px; color: black;"">+</div>",NA,NA,NA,NA,NA,NA,NA,NA,NA,NA,NA,/Users/martincz/GitHub/COGS119/group_fa24_massive_memory/analysis/../data/raw_data/p3duj2aujg2_1732482453733.csv
NA,785,image-keyboard-response,85,2.0.0,1025675,p3duj2aujg2,manatee,NA,stimuli\STATE\USED\Sscissors2.JPG,NA,NA,NA,NA,Memory,TRUE,true,NA,NA,NA,NA,/Users/martincz/GitHub/COGS119/group_fa24_massive_memory/analysis/../data/raw_data/p3duj2aujg2_1732482453733.csv
NA,null,html-keyboard-response,86,2.0.0,1026188,p3duj2aujg2,manatee,null,"<div style=""font-size:60px; color: green;"">+</div>",NA,NA,NA,NA,NA,NA,NA,NA,NA,NA,NA,/Users/martincz/GitHub/COGS119/group_fa24_massive_memory/analysis/../data/raw_data/p3duj2aujg2_1732482453733.csv
NA,null,image-keyboard-response,87,2.0.0,1028195,p3duj2aujg2,manatee,null,stimuli\STATE\USED\Sscales2.jpg,NA,NA,NA,NA,Memory,FALSE,null,NA,NA,NA,NA,/Users/martincz/GitHub/COGS119/group_fa24_massive_memory/analysis/../data/raw_data/p3duj2aujg2_1732482453733.csv
NA,null,html-keyboard-response,88,2.0.0,1028704,p3duj2aujg2,manatee,null,"<div style=""font-size:60px; color: black;"">+</div>",NA,NA,NA,NA,NA,NA,NA,NA,NA,NA,NA,/Users/martincz/GitHub/COGS119/group_fa24_massive_memory/analysis/../data/raw_data/p3duj2aujg2_1732482453733.csv
NA,null,image-keyboard-response,89,2.0.0,1030719,p3duj2aujg2,manatee,null,stimuli\STATE\USED\Snapkins2.jpg,NA,NA,NA,NA,Memory,FALSE,null,NA,NA,NA,NA,/Users/martincz/GitHub/COGS119/group_fa24_massive_memory/analysis/../data/raw_data/p3duj2aujg2_1732482453733.csv
NA,null,html-keyboard-response,90,2.0.0,1031223,p3duj2aujg2,manatee,null,"<div style=""font-size:60px; color: black;"">+</div>",NA,NA,NA,NA,NA,NA,NA,NA,NA,NA,NA,/Users/martincz/GitHub/COGS119/group_fa24_massive_memory/analysis/../data/raw_data/p3duj2aujg2_1732482453733.csv
NA,null,image-keyboard-response,91,2.0.0,1033238,p3duj2aujg2,manatee,null,stimuli\EXEMPLAR\USED\Epliers2.jpg,NA,NA,NA,NA,Memory,FALSE,null,NA,NA,NA,NA,/Users/martincz/GitHub/COGS119/group_fa24_massive_memory/analysis/../data/raw_data/p3duj2aujg2_1732482453733.csv
NA,null,html-keyboard-response,92,2.0.0,1033747,p3duj2aujg2,manatee,null,"<div style=""font-size:60px; color: black;"">+</div>",NA,NA,NA,NA,NA,NA,NA,NA,NA,NA,NA,/Users/martincz/GitHub/COGS119/group_fa24_massive_memory/analysis/../data/raw_data/p3duj2aujg2_1732482453733.csv
NA,null,image-keyboard-response,93,2.0.0,1035758,p3duj2aujg2,manatee,null,stimuli\STATE\USED\Sgiftbag2.jpg,NA,NA,NA,NA,Memory,FALSE,null,NA,NA,NA,NA,/Users/martincz/GitHub/COGS119/group_fa24_massive_memory/analysis/../data/raw_data/p3duj2aujg2_1732482453733.csv
NA,null,html-keyboard-response,94,2.0.0,1036265,p3duj2aujg2,manatee,null,"<div style=""font-size:60px; color: black;"">+</div>",NA,NA,NA,NA,NA,NA,NA,NA,NA,NA,NA,/Users/martincz/GitHub/COGS119/group_fa24_massive_memory/analysis/../data/raw_data/p3duj2aujg2_1732482453733.csv
NA,null,image-keyboard-response,95,2.0.0,1038269,p3duj2aujg2,manatee,null,stimuli\STATE\USED\Sumbrella1.jpg,NA,NA,NA,NA,Memory,FALSE,null,NA,NA,NA,NA,/Users/martincz/GitHub/COGS119/group_fa24_massive_memory/analysis/../data/raw_data/p3duj2aujg2_1732482453733.csv
NA,null,html-keyboard-response,96,2.0.0,1038778,p3duj2aujg2,manatee,null,"<div style=""font-size:60px; color: black;"">+</div>",NA,NA,NA,NA,NA,NA,NA,NA,NA,NA,NA,/Users/martincz/GitHub/COGS119/group_fa24_massive_memory/analysis/../data/raw_data/p3duj2aujg2_1732482453733.csv
NA,null,image-keyboard-response,97,2.0.0,1040783,p3duj2aujg2,manatee,null,stimuli\STATE\USED\Spestle1.jpg,NA,NA,NA,NA,Memory,FALSE,null,NA,NA,NA,NA,/Users/martincz/GitHub/COGS119/group_fa24_massive_memory/analysis/../data/raw_data/p3duj2aujg2_1732482453733.csv
NA,null,html-keyboard-response,98,2.0.0,1041290,p3duj2aujg2,manatee,null,"<div style=""font-size:60px; color: black;"">+</div>",NA,NA,NA,NA,NA,NA,NA,NA,NA,NA,NA,/Users/martincz/GitHub/COGS119/group_fa24_massive_memory/analysis/../data/raw_data/p3duj2aujg2_1732482453733.csv
NA,null,image-keyboard-response,99,2.0.0,1043295,p3duj2aujg2,manatee,null,stimuli\EXEMPLAR\USED\Eballoon2.jpg,NA,NA,NA,NA,Memory,FALSE,null,NA,NA,NA,NA,/Users/martincz/GitHub/COGS119/group_fa24_massive_memory/analysis/../data/raw_data/p3duj2aujg2_1732482453733.csv
NA,null,html-keyboard-response,100,2.0.0,1043811,p3duj2aujg2,manatee,null,"<div style=""font-size:60px; color: black;"">+</div>",NA,NA,NA,NA,NA,NA,NA,NA,NA,NA,NA,/Users/martincz/GitHub/COGS119/group_fa24_massive_memory/analysis/../data/raw_data/p3duj2aujg2_1732482453733.csv
NA,null,image-keyboard-response,101,2.0.0,1045815,p3duj2aujg2,manatee,null,stimuli\STATE\USED\Scateringtray1.jpg,NA,NA,NA,NA,Memory,FALSE,null,NA,NA,NA,NA,/Users/martincz/GitHub/COGS119/group_fa24_massive_memory/analysis/../data/raw_data/p3duj2aujg2_1732482453733.csv
NA,null,html-keyboard-response,102,2.0.0,1046327,p3duj2aujg2,manatee,null,"<div style=""font-size:60px; color: black;"">+</div>",NA,NA,NA,NA,NA,NA,NA,NA,NA,NA,NA,/Users/martincz/GitHub/COGS119/group_fa24_massive_memory/analysis/../data/raw_data/p3duj2aujg2_1732482453733.csv
NA,null,image-keyboard-response,103,2.0.0,1048344,p3duj2aujg2,manatee,null,stimuli\STATE\USED\Shandshake1.JPG,NA,NA,NA,NA,Memory,FALSE,null,NA,NA,NA,NA,/Users/martincz/GitHub/COGS119/group_fa24_massive_memory/analysis/../data/raw_data/p3duj2aujg2_1732482453733.csv
NA,null,html-keyboard-response,104,2.0.0,1048847,p3duj2aujg2,manatee,null,"<div style=""font-size:60px; color: black;"">+</div>",NA,NA,NA,NA,NA,NA,NA,NA,NA,NA,NA,/Users/martincz/GitHub/COGS119/group_fa24_massive_memory/analysis/../data/raw_data/p3duj2aujg2_1732482453733.csv
NA,null,image-keyboard-response,105,2.0.0,1050864,p3duj2aujg2,manatee,null,stimuli\EXEMPLAR\USED\Ebell2.jpg,NA,NA,NA,NA,Memory,FALSE,null,NA,NA,NA,NA,/Users/martincz/GitHub/COGS119/group_fa24_massive_memory/analysis/../data/raw_data/p3duj2aujg2_1732482453733.csv
NA,null,html-keyboard-response,106,2.0.0,1051370,p3duj2aujg2,manatee,null,"<div style=""font-size:60px; color: black;"">+</div>",NA,NA,NA,NA,NA,NA,NA,NA,NA,NA,NA,/Users/martincz/GitHub/COGS119/group_fa24_massive_memory/analysis/../data/raw_data/p3duj2aujg2_1732482453733.csv
NA,1754,html-button-response,107,2.0.0,1053125,p3duj2aujg2,manatee,0,Are you still there?,NA,NA,NA,NA,Attention Check,NA,NA,NA,NA,NA,NA,/Users/martincz/GitHub/COGS119/group_fa24_massive_memory/analysis/../data/raw_data/p3duj2aujg2_1732482453733.csv
NA,1005,image-keyboard-response,108,2.0.0,1055135,p3duj2aujg2,manatee,NA,stimuli\EXEMPLAR\USED\Eballoon2.jpg,NA,NA,NA,NA,Memory,TRUE,true,NA,NA,NA,NA,/Users/martincz/GitHub/COGS119/group_fa24_massive_memory/analysis/../data/raw_data/p3duj2aujg2_1732482453733.csv
NA,null,html-keyboard-response,109,2.0.0,1055649,p3duj2aujg2,manatee,null,"<div style=""font-size:60px; color: green;"">+</div>",NA,NA,NA,NA,NA,NA,NA,NA,NA,NA,NA,/Users/martincz/GitHub/COGS119/group_fa24_massive_memory/analysis/../data/raw_data/p3duj2aujg2_1732482453733.csv
NA,null,image-keyboard-response,110,2.0.0,1057655,p3duj2aujg2,manatee,null,stimuli\EXEMPLAR\USED\Ehorn1.jpg,NA,NA,NA,NA,Memory,FALSE,null,NA,NA,NA,NA,/Users/martincz/GitHub/COGS119/group_fa24_massive_memory/analysis/../data/raw_data/p3duj2aujg2_1732482453733.csv
NA,null,html-keyboard-response,111,2.0.0,1058163,p3duj2aujg2,manatee,null,"<div style=""font-size:60px; color: black;"">+</div>",NA,NA,NA,NA,NA,NA,NA,NA,NA,NA,NA,/Users/martincz/GitHub/COGS119/group_fa24_massive_memory/analysis/../data/raw_data/p3duj2aujg2_1732482453733.csv
NA,null,image-keyboard-response,112,2.0.0,1060177,p3duj2aujg2,manatee,null,stimuli\EXEMPLAR\USED\Ebunny1.jpg,NA,NA,NA,NA,Memory,FALSE,null,NA,NA,NA,NA,/Users/martincz/GitHub/COGS119/group_fa24_massive_memory/analysis/../data/raw_data/p3duj2aujg2_1732482453733.csv
NA,null,html-keyboard-response,113,2.0.0,1060690,p3duj2aujg2,manatee,null,"<div style=""font-size:60px; color: black;"">+</div>",NA,NA,NA,NA,NA,NA,NA,NA,NA,NA,NA,/Users/martincz/GitHub/COGS119/group_fa24_massive_memory/analysis/../data/raw_data/p3duj2aujg2_1732482453733.csv
NA,null,image-keyboard-response,114,2.0.0,1062700,p3duj2aujg2,manatee,null,stimuli\STATE\USED\Sapplesredbasket1.JPG,NA,NA,NA,NA,Memory,FALSE,null,NA,NA,NA,NA,/Users/martincz/GitHub/COGS119/group_fa24_massive_memory/analysis/../data/raw_data/p3duj2aujg2_1732482453733.csv
NA,null,html-keyboard-response,115,2.0.0,1063209,p3duj2aujg2,manatee,null,"<div style=""font-size:60px; color: black;"">+</div>",NA,NA,NA,NA,NA,NA,NA,NA,NA,NA,NA,/Users/martincz/GitHub/COGS119/group_fa24_massive_memory/analysis/../data/raw_data/p3duj2aujg2_1732482453733.csv
NA,null,image-keyboard-response,116,2.0.0,1065225,p3duj2aujg2,manatee,null,stimuli\EXEMPLAR\USED\Elei2.jpg,NA,NA,NA,NA,Memory,FALSE,null,NA,NA,NA,NA,/Users/martincz/GitHub/COGS119/group_fa24_massive_memory/analysis/../data/raw_data/p3duj2aujg2_1732482453733.csv
NA,null,html-keyboard-response,117,2.0.0,1065730,p3duj2aujg2,manatee,null,"<div style=""font-size:60px; color: black;"">+</div>",NA,NA,NA,NA,NA,NA,NA,NA,NA,NA,NA,/Users/martincz/GitHub/COGS119/group_fa24_massive_memory/analysis/../data/raw_data/p3duj2aujg2_1732482453733.csv
NA,null,image-keyboard-response,118,2.0.0,1067743,p3duj2aujg2,manatee,null,stimuli\STATE\USED\Sstoplight1.jpg,NA,NA,NA,NA,Memory,FALSE,null,NA,NA,NA,NA,/Users/martincz/GitHub/COGS119/group_fa24_massive_memory/analysis/../data/raw_data/p3duj2aujg2_1732482453733.csv
NA,null,html-keyboard-response,119,2.0.0,1068254,p3duj2aujg2,manatee,null,"<div style=""font-size:60px; color: black;"">+</div>",NA,NA,NA,NA,NA,NA,NA,NA,NA,NA,NA,/Users/martincz/GitHub/COGS119/group_fa24_massive_memory/analysis/../data/raw_data/p3duj2aujg2_1732482453733.csv
NA,797,image-keyboard-response,120,2.0.0,1070257,p3duj2aujg2,manatee,NA,stimuli\EXEMPLAR\USED\Ebunny1.jpg,NA,NA,NA,NA,Memory,TRUE,true,NA,NA,NA,NA,/Users/martincz/GitHub/COGS119/group_fa24_massive_memory/analysis/../data/raw_data/p3duj2aujg2_1732482453733.csv
NA,null,html-keyboard-response,121,2.0.0,1070770,p3duj2aujg2,manatee,null,"<div style=""font-size:60px; color: green;"">+</div>",NA,NA,NA,NA,NA,NA,NA,NA,NA,NA,NA,/Users/martincz/GitHub/COGS119/group_fa24_massive_memory/analysis/../data/raw_data/p3duj2aujg2_1732482453733.csv
NA,null,image-keyboard-response,122,2.0.0,1072781,p3duj2aujg2,manatee,null,stimuli\EXEMPLAR\USED\Edispenser2.jpg,NA,NA,NA,NA,Memory,FALSE,null,NA,NA,NA,NA,/Users/martincz/GitHub/COGS119/group_fa24_massive_memory/analysis/../data/raw_data/p3duj2aujg2_1732482453733.csv
NA,null,html-keyboard-response,123,2.0.0,1073289,p3duj2aujg2,manatee,null,"<div style=""font-size:60px; color: black;"">+</div>",NA,NA,NA,NA,NA,NA,NA,NA,NA,NA,NA,/Users/martincz/GitHub/COGS119/group_fa24_massive_memory/analysis/../data/raw_data/p3duj2aujg2_1732482453733.csv
NA,null,image-keyboard-response,124,2.0.0,1075304,p3duj2aujg2,manatee,null,stimuli\EXEMPLAR\USED\Ecamera1.jpg,NA,NA,NA,NA,Memory,FALSE,null,NA,NA,NA,NA,/Users/martincz/GitHub/COGS119/group_fa24_massive_memory/analysis/../data/raw_data/p3duj2aujg2_1732482453733.csv
NA,null,html-keyboard-response,125,2.0.0,1075811,p3duj2aujg2,manatee,null,"<div style=""font-size:60px; color: black;"">+</div>",NA,NA,NA,NA,NA,NA,NA,NA,NA,NA,NA,/Users/martincz/GitHub/COGS119/group_fa24_massive_memory/analysis/../data/raw_data/p3duj2aujg2_1732482453733.csv
NA,null,image-keyboard-response,126,2.0.0,1077827,p3duj2aujg2,manatee,null,stimuli\EXEMPLAR\USED\Egame1.jpg,NA,NA,NA,NA,Memory,FALSE,null,NA,NA,NA,NA,/Users/martincz/GitHub/COGS119/group_fa24_massive_memory/analysis/../data/raw_data/p3duj2aujg2_1732482453733.csv
NA,null,html-keyboard-response,127,2.0.0,1078344,p3duj2aujg2,manatee,null,"<div style=""font-size:60px; color: black;"">+</div>",NA,NA,NA,NA,NA,NA,NA,NA,NA,NA,NA,/Users/martincz/GitHub/COGS119/group_fa24_massive_memory/analysis/../data/raw_data/p3duj2aujg2_1732482453733.csv
NA,null,image-keyboard-response,128,2.0.0,1080352,p3duj2aujg2,manatee,null,stimuli\EXEMPLAR\USED\Echopsticks1.jpg,NA,NA,NA,NA,Memory,FALSE,null,NA,NA,NA,NA,/Users/martincz/GitHub/COGS119/group_fa24_massive_memory/analysis/../data/raw_data/p3duj2aujg2_1732482453733.csv
NA,null,html-keyboard-response,129,2.0.0,1080860,p3duj2aujg2,manatee,null,"<div style=""font-size:60px; color: black;"">+</div>",NA,NA,NA,NA,NA,NA,NA,NA,NA,NA,NA,/Users/martincz/GitHub/COGS119/group_fa24_massive_memory/analysis/../data/raw_data/p3duj2aujg2_1732482453733.csv
NA,null,image-keyboard-response,130,2.0.0,1082868,p3duj2aujg2,manatee,null,stimuli\STATE\USED\Sdonut1.jpg,NA,NA,NA,NA,Memory,FALSE,null,NA,NA,NA,NA,/Users/martincz/GitHub/COGS119/group_fa24_massive_memory/analysis/../data/raw_data/p3duj2aujg2_1732482453733.csv
NA,null,html-keyboard-response,131,2.0.0,1083377,p3duj2aujg2,manatee,null,"<div style=""font-size:60px; color: black;"">+</div>",NA,NA,NA,NA,NA,NA,NA,NA,NA,NA,NA,/Users/martincz/GitHub/COGS119/group_fa24_massive_memory/analysis/../data/raw_data/p3duj2aujg2_1732482453733.csv
NA,null,image-keyboard-response,132,2.0.0,1085392,p3duj2aujg2,manatee,null,stimuli\STATE\USED\Sscanner2.JPG,NA,NA,NA,NA,Memory,FALSE,null,NA,NA,NA,NA,/Users/martincz/GitHub/COGS119/group_fa24_massive_memory/analysis/../data/raw_data/p3duj2aujg2_1732482453733.csv
NA,null,html-keyboard-response,133,2.0.0,1085910,p3duj2aujg2,manatee,null,"<div style=""font-size:60px; color: black;"">+</div>",NA,NA,NA,NA,NA,NA,NA,NA,NA,NA,NA,/Users/martincz/GitHub/COGS119/group_fa24_massive_memory/analysis/../data/raw_data/p3duj2aujg2_1732482453733.csv
NA,null,image-keyboard-response,134,2.0.0,1087921,p3duj2aujg2,manatee,null,stimuli\STATE\USED\Saccordionsmall2.JPG,NA,NA,NA,NA,Memory,FALSE,null,NA,NA,NA,NA,/Users/martincz/GitHub/COGS119/group_fa24_massive_memory/analysis/../data/raw_data/p3duj2aujg2_1732482453733.csv
NA,null,html-keyboard-response,135,2.0.0,1088427,p3duj2aujg2,manatee,null,"<div style=""font-size:60px; color: black;"">+</div>",NA,NA,NA,NA,NA,NA,NA,NA,NA,NA,NA,/Users/martincz/GitHub/COGS119/group_fa24_massive_memory/analysis/../data/raw_data/p3duj2aujg2_1732482453733.csv
NA,null,image-keyboard-response,136,2.0.0,1090431,p3duj2aujg2,manatee,null,stimuli\STATE\USED\Speppers2.jpg,NA,NA,NA,NA,Memory,FALSE,null,NA,NA,NA,NA,/Users/martincz/GitHub/COGS119/group_fa24_massive_memory/analysis/../data/raw_data/p3duj2aujg2_1732482453733.csv
NA,null,html-keyboard-response,137,2.0.0,1090938,p3duj2aujg2,manatee,null,"<div style=""font-size:60px; color: black;"">+</div>",NA,NA,NA,NA,NA,NA,NA,NA,NA,NA,NA,/Users/martincz/GitHub/COGS119/group_fa24_massive_memory/analysis/../data/raw_data/p3duj2aujg2_1732482453733.csv
NA,641,image-keyboard-response,138,2.0.0,1092955,p3duj2aujg2,manatee,NA,stimuli\STATE\USED\Sdonut1.jpg,NA,NA,NA,NA,Memory,TRUE,true,NA,NA,NA,NA,/Users/martincz/GitHub/COGS119/group_fa24_massive_memory/analysis/../data/raw_data/p3duj2aujg2_1732482453733.csv
NA,null,html-keyboard-response,139,2.0.0,1093457,p3duj2aujg2,manatee,null,"<div style=""font-size:60px; color: green;"">+</div>",NA,NA,NA,NA,NA,NA,NA,NA,NA,NA,NA,/Users/martincz/GitHub/COGS119/group_fa24_massive_memory/analysis/../data/raw_data/p3duj2aujg2_1732482453733.csv
NA,null,image-keyboard-response,140,2.0.0,1095461,p3duj2aujg2,manatee,null,stimuli\EXEMPLAR\USED\Eladder1.jpg,NA,NA,NA,NA,Memory,FALSE,null,NA,NA,NA,NA,/Users/martincz/GitHub/COGS119/group_fa24_massive_memory/analysis/../data/raw_data/p3duj2aujg2_1732482453733.csv
NA,null,html-keyboard-response,141,2.0.0,1095974,p3duj2aujg2,manatee,null,"<div style=""font-size:60px; color: black;"">+</div>",NA,NA,NA,NA,NA,NA,NA,NA,NA,NA,NA,/Users/martincz/GitHub/COGS119/group_fa24_massive_memory/analysis/../data/raw_data/p3duj2aujg2_1732482453733.csv
NA,null,image-keyboard-response,142,2.0.0,1097987,p3duj2aujg2,manatee,null,stimuli\STATE\USED\Stiger1.jpg,NA,NA,NA,NA,Memory,FALSE,null,NA,NA,NA,NA,/Users/martincz/GitHub/COGS119/group_fa24_massive_memory/analysis/../data/raw_data/p3duj2aujg2_1732482453733.csv
NA,null,html-keyboard-response,143,2.0.0,1098503,p3duj2aujg2,manatee,null,"<div style=""font-size:60px; color: black;"">+</div>",NA,NA,NA,NA,NA,NA,NA,NA,NA,NA,NA,/Users/martincz/GitHub/COGS119/group_fa24_massive_memory/analysis/../data/raw_data/p3duj2aujg2_1732482453733.csv
NA,null,image-keyboard-response,144,2.0.0,1100517,p3duj2aujg2,manatee,null,stimuli\EXEMPLAR\USED\Efolder1.jpg,NA,NA,NA,NA,Memory,FALSE,null,NA,NA,NA,NA,/Users/martincz/GitHub/COGS119/group_fa24_massive_memory/analysis/../data/raw_data/p3duj2aujg2_1732482453733.csv
NA,null,html-keyboard-response,145,2.0.0,1101021,p3duj2aujg2,manatee,null,"<div style=""font-size:60px; color: black;"">+</div>",NA,NA,NA,NA,NA,NA,NA,NA,NA,NA,NA,/Users/martincz/GitHub/COGS119/group_fa24_massive_memory/analysis/../data/raw_data/p3duj2aujg2_1732482453733.csv
NA,null,image-keyboard-response,146,2.0.0,1103024,p3duj2aujg2,manatee,null,stimuli\EXEMPLAR\USED\Eicecream1.jpg,NA,NA,NA,NA,Memory,FALSE,null,NA,NA,NA,NA,/Users/martincz/GitHub/COGS119/group_fa24_massive_memory/analysis/../data/raw_data/p3duj2aujg2_1732482453733.csv
NA,null,html-keyboard-response,147,2.0.0,1103532,p3duj2aujg2,manatee,null,"<div style=""font-size:60px; color: black;"">+</div>",NA,NA,NA,NA,NA,NA,NA,NA,NA,NA,NA,/Users/martincz/GitHub/COGS119/group_fa24_massive_memory/analysis/../data/raw_data/p3duj2aujg2_1732482453733.csv
NA,884,image-keyboard-response,148,2.0.0,1105537,p3duj2aujg2,manatee,NA,stimuli\EXEMPLAR\USED\Eladder1.jpg,NA,NA,NA,NA,Memory,TRUE,true,NA,NA,NA,NA,/Users/martincz/GitHub/COGS119/group_fa24_massive_memory/analysis/../data/raw_data/p3duj2aujg2_1732482453733.csv
NA,null,html-keyboard-response,149,2.0.0,1106047,p3duj2aujg2,manatee,null,"<div style=""font-size:60px; color: green;"">+</div>",NA,NA,NA,NA,NA,NA,NA,NA,NA,NA,NA,/Users/martincz/GitHub/COGS119/group_fa24_massive_memory/analysis/../data/raw_data/p3duj2aujg2_1732482453733.csv
NA,null,image-keyboard-response,150,2.0.0,1108057,p3duj2aujg2,manatee,null,stimuli\EXEMPLAR\USED\Eswimsuit2.jpg,NA,NA,NA,NA,Memory,FALSE,null,NA,NA,NA,NA,/Users/martincz/GitHub/COGS119/group_fa24_massive_memory/analysis/../data/raw_data/p3duj2aujg2_1732482453733.csv
NA,null,html-keyboard-response,151,2.0.0,1108559,p3duj2aujg2,manatee,null,"<div style=""font-size:60px; color: black;"">+</div>",NA,NA,NA,NA,NA,NA,NA,NA,NA,NA,NA,/Users/martincz/GitHub/COGS119/group_fa24_massive_memory/analysis/../data/raw_data/p3duj2aujg2_1732482453733.csv
NA,null,image-keyboard-response,152,2.0.0,1110576,p3duj2aujg2,manatee,null,stimuli\STATE\USED\Sbabytoy1.JPG,NA,NA,NA,NA,Memory,FALSE,null,NA,NA,NA,NA,/Users/martincz/GitHub/COGS119/group_fa24_massive_memory/analysis/../data/raw_data/p3duj2aujg2_1732482453733.csv
NA,null,html-keyboard-response,153,2.0.0,1111084,p3duj2aujg2,manatee,null,"<div style=""font-size:60px; color: black;"">+</div>",NA,NA,NA,NA,NA,NA,NA,NA,NA,NA,NA,/Users/martincz/GitHub/COGS119/group_fa24_massive_memory/analysis/../data/raw_data/p3duj2aujg2_1732482453733.csv
NA,null,image-keyboard-response,154,2.0.0,1113091,p3duj2aujg2,manatee,null,stimuli\STATE\USED\Shandmirror1.jpg,NA,NA,NA,NA,Memory,FALSE,null,NA,NA,NA,NA,/Users/martincz/GitHub/COGS119/group_fa24_massive_memory/analysis/../data/raw_data/p3duj2aujg2_1732482453733.csv
NA,null,html-keyboard-response,155,2.0.0,1113597,p3duj2aujg2,manatee,null,"<div style=""font-size:60px; color: black;"">+</div>",NA,NA,NA,NA,NA,NA,NA,NA,NA,NA,NA,/Users/martincz/GitHub/COGS119/group_fa24_massive_memory/analysis/../data/raw_data/p3duj2aujg2_1732482453733.csv
NA,null,image-keyboard-response,156,2.0.0,1115609,p3duj2aujg2,manatee,null,stimuli\EXEMPLAR\USED\Esuitcase1.jpg,NA,NA,NA,NA,Memory,FALSE,null,NA,NA,NA,NA,/Users/martincz/GitHub/COGS119/group_fa24_massive_memory/analysis/../data/raw_data/p3duj2aujg2_1732482453733.csv
NA,null,html-keyboard-response,157,2.0.0,1116123,p3duj2aujg2,manatee,null,"<div style=""font-size:60px; color: black;"">+</div>",NA,NA,NA,NA,NA,NA,NA,NA,NA,NA,NA,/Users/martincz/GitHub/COGS119/group_fa24_massive_memory/analysis/../data/raw_data/p3duj2aujg2_1732482453733.csv
NA,null,image-keyboard-response,158,2.0.0,1118139,p3duj2aujg2,manatee,null,stimuli\STATE\USED\Shandsign1.JPG,NA,NA,NA,NA,Memory,FALSE,null,NA,NA,NA,NA,/Users/martincz/GitHub/COGS119/group_fa24_massive_memory/analysis/../data/raw_data/p3duj2aujg2_1732482453733.csv
NA,null,html-keyboard-response,159,2.0.0,1118652,p3duj2aujg2,manatee,null,"<div style=""font-size:60px; color: black;"">+</div>",NA,NA,NA,NA,NA,NA,NA,NA,NA,NA,NA,/Users/martincz/GitHub/COGS119/group_fa24_massive_memory/analysis/../data/raw_data/p3duj2aujg2_1732482453733.csv
NA,null,image-keyboard-response,160,2.0.0,1120657,p3duj2aujg2,manatee,null,stimuli\EXEMPLAR\USED\Eguitar2.jpg,NA,NA,NA,NA,Memory,FALSE,null,NA,NA,NA,NA,/Users/martincz/GitHub/COGS119/group_fa24_massive_memory/analysis/../data/raw_data/p3duj2aujg2_1732482453733.csv
NA,null,html-keyboard-response,161,2.0.0,1121160,p3duj2aujg2,manatee,null,"<div style=""font-size:60px; color: black;"">+</div>",NA,NA,NA,NA,NA,NA,NA,NA,NA,NA,NA,/Users/martincz/GitHub/COGS119/group_fa24_massive_memory/analysis/../data/raw_data/p3duj2aujg2_1732482453733.csv
NA,null,image-keyboard-response,162,2.0.0,1123173,p3duj2aujg2,manatee,null,stimuli\STATE\USED\Sbreadslice2.jpg,NA,NA,NA,NA,Memory,FALSE,null,NA,NA,NA,NA,/Users/martincz/GitHub/COGS119/group_fa24_massive_memory/analysis/../data/raw_data/p3duj2aujg2_1732482453733.csv
NA,null,html-keyboard-response,163,2.0.0,1123679,p3duj2aujg2,manatee,null,"<div style=""font-size:60px; color: black;"">+</div>",NA,NA,NA,NA,NA,NA,NA,NA,NA,NA,NA,/Users/martincz/GitHub/COGS119/group_fa24_massive_memory/analysis/../data/raw_data/p3duj2aujg2_1732482453733.csv
NA,null,image-keyboard-response,164,2.0.0,1125684,p3duj2aujg2,manatee,null,stimuli\STATE\USED\Smetronome2.JPG,NA,NA,NA,NA,Memory,FALSE,null,NA,NA,NA,NA,/Users/martincz/GitHub/COGS119/group_fa24_massive_memory/analysis/../data/raw_data/p3duj2aujg2_1732482453733.csv
NA,null,html-keyboard-response,165,2.0.0,1126189,p3duj2aujg2,manatee,null,"<div style=""font-size:60px; color: black;"">+</div>",NA,NA,NA,NA,NA,NA,NA,NA,NA,NA,NA,/Users/martincz/GitHub/COGS119/group_fa24_massive_memory/analysis/../data/raw_data/p3duj2aujg2_1732482453733.csv
NA,null,image-keyboard-response,166,2.0.0,1128192,p3duj2aujg2,manatee,null,stimuli\STATE\USED\Sseats2.jpg,NA,NA,NA,NA,Memory,FALSE,null,NA,NA,NA,NA,/Users/martincz/GitHub/COGS119/group_fa24_massive_memory/analysis/../data/raw_data/p3duj2aujg2_1732482453733.csv
NA,null,html-keyboard-response,167,2.0.0,1128703,p3duj2aujg2,manatee,null,"<div style=""font-size:60px; color: black;"">+</div>",NA,NA,NA,NA,NA,NA,NA,NA,NA,NA,NA,/Users/martincz/GitHub/COGS119/group_fa24_massive_memory/analysis/../data/raw_data/p3duj2aujg2_1732482453733.csv
NA,null,image-keyboard-response,168,2.0.0,1130717,p3duj2aujg2,manatee,null,stimuli\STATE\USED\Srainbowslice2.jpg,NA,NA,NA,NA,Memory,FALSE,null,NA,NA,NA,NA,/Users/martincz/GitHub/COGS119/group_fa24_massive_memory/analysis/../data/raw_data/p3duj2aujg2_1732482453733.csv
NA,null,html-keyboard-response,169,2.0.0,1131220,p3duj2aujg2,manatee,null,"<div style=""font-size:60px; color: black;"">+</div>",NA,NA,NA,NA,NA,NA,NA,NA,NA,NA,NA,/Users/martincz/GitHub/COGS119/group_fa24_massive_memory/analysis/../data/raw_data/p3duj2aujg2_1732482453733.csv
NA,null,image-keyboard-response,170,2.0.0,1133229,p3duj2aujg2,manatee,null,stimuli\STATE\USED\Seggplant1.jpg,NA,NA,NA,NA,Memory,FALSE,null,NA,NA,NA,NA,/Users/martincz/GitHub/COGS119/group_fa24_massive_memory/analysis/../data/raw_data/p3duj2aujg2_1732482453733.csv
NA,null,html-keyboard-response,171,2.0.0,1133740,p3duj2aujg2,manatee,null,"<div style=""font-size:60px; color: black;"">+</div>",NA,NA,NA,NA,NA,NA,NA,NA,NA,NA,NA,/Users/martincz/GitHub/COGS119/group_fa24_massive_memory/analysis/../data/raw_data/p3duj2aujg2_1732482453733.csv
NA,null,image-keyboard-response,172,2.0.0,1135755,p3duj2aujg2,manatee,null,stimuli\EXEMPLAR\USED\Earch2.jpg,NA,NA,NA,NA,Memory,FALSE,null,NA,NA,NA,NA,/Users/martincz/GitHub/COGS119/group_fa24_massive_memory/analysis/../data/raw_data/p3duj2aujg2_1732482453733.csv
NA,null,html-keyboard-response,173,2.0.0,1136265,p3duj2aujg2,manatee,null,"<div style=""font-size:60px; color: black;"">+</div>",NA,NA,NA,NA,NA,NA,NA,NA,NA,NA,NA,/Users/martincz/GitHub/COGS119/group_fa24_massive_memory/analysis/../data/raw_data/p3duj2aujg2_1732482453733.csv
NA,1006,image-keyboard-response,174,2.0.0,1138288,p3duj2aujg2,manatee,NA,stimuli\STATE\USED\Sseats2.jpg,NA,NA,NA,NA,Memory,TRUE,true,NA,NA,NA,NA,/Users/martincz/GitHub/COGS119/group_fa24_massive_memory/analysis/../data/raw_data/p3duj2aujg2_1732482453733.csv
NA,null,html-keyboard-response,175,2.0.0,1138795,p3duj2aujg2,manatee,null,"<div style=""font-size:60px; color: green;"">+</div>",NA,NA,NA,NA,NA,NA,NA,NA,NA,NA,NA,/Users/martincz/GitHub/COGS119/group_fa24_massive_memory/analysis/../data/raw_data/p3duj2aujg2_1732482453733.csv
NA,null,image-keyboard-response,176,2.0.0,1140810,p3duj2aujg2,manatee,null,stimuli\EXEMPLAR\USED\Estarfish2.jpg,NA,NA,NA,NA,Memory,FALSE,null,NA,NA,NA,NA,/Users/martincz/GitHub/COGS119/group_fa24_massive_memory/analysis/../data/raw_data/p3duj2aujg2_1732482453733.csv
NA,null,html-keyboard-response,177,2.0.0,1141316,p3duj2aujg2,manatee,null,"<div style=""font-size:60px; color: black;"">+</div>",NA,NA,NA,NA,NA,NA,NA,NA,NA,NA,NA,/Users/martincz/GitHub/COGS119/group_fa24_massive_memory/analysis/../data/raw_data/p3duj2aujg2_1732482453733.csv
NA,null,image-keyboard-response,178,2.0.0,1143325,p3duj2aujg2,manatee,null,stimuli\EXEMPLAR\USED\Eturtle2.jpg,NA,NA,NA,NA,Memory,FALSE,null,NA,NA,NA,NA,/Users/martincz/GitHub/COGS119/group_fa24_massive_memory/analysis/../data/raw_data/p3duj2aujg2_1732482453733.csv
NA,null,html-keyboard-response,179,2.0.0,1143833,p3duj2aujg2,manatee,null,"<div style=""font-size:60px; color: black;"">+</div>",NA,NA,NA,NA,NA,NA,NA,NA,NA,NA,NA,/Users/martincz/GitHub/COGS119/group_fa24_massive_memory/analysis/../data/raw_data/p3duj2aujg2_1732482453733.csv
NA,null,image-keyboard-response,180,2.0.0,1145845,p3duj2aujg2,manatee,null,stimuli\STATE\USED\Spolarbear2.jpg,NA,NA,NA,NA,Memory,FALSE,null,NA,NA,NA,NA,/Users/martincz/GitHub/COGS119/group_fa24_massive_memory/analysis/../data/raw_data/p3duj2aujg2_1732482453733.csv
NA,null,html-keyboard-response,181,2.0.0,1146354,p3duj2aujg2,manatee,null,"<div style=""font-size:60px; color: black;"">+</div>",NA,NA,NA,NA,NA,NA,NA,NA,NA,NA,NA,/Users/martincz/GitHub/COGS119/group_fa24_massive_memory/analysis/../data/raw_data/p3duj2aujg2_1732482453733.csv
NA,null,image-keyboard-response,182,2.0.0,1148357,p3duj2aujg2,manatee,null,stimuli\EXEMPLAR\USED\Erazor2.jpg,NA,NA,NA,NA,Memory,FALSE,null,NA,NA,NA,NA,/Users/martincz/GitHub/COGS119/group_fa24_massive_memory/analysis/../data/raw_data/p3duj2aujg2_1732482453733.csv
NA,null,html-keyboard-response,183,2.0.0,1148867,p3duj2aujg2,manatee,null,"<div style=""font-size:60px; color: black;"">+</div>",NA,NA,NA,NA,NA,NA,NA,NA,NA,NA,NA,/Users/martincz/GitHub/COGS119/group_fa24_massive_memory/analysis/../data/raw_data/p3duj2aujg2_1732482453733.csv
NA,null,image-keyboard-response,184,2.0.0,1150882,p3duj2aujg2,manatee,null,stimuli\EXEMPLAR\USED\Etoykeys2.JPG,NA,NA,NA,NA,Memory,FALSE,null,NA,NA,NA,NA,/Users/martincz/GitHub/COGS119/group_fa24_massive_memory/analysis/../data/raw_data/p3duj2aujg2_1732482453733.csv
NA,null,html-keyboard-response,185,2.0.0,1151389,p3duj2aujg2,manatee,null,"<div style=""font-size:60px; color: black;"">+</div>",NA,NA,NA,NA,NA,NA,NA,NA,NA,NA,NA,/Users/martincz/GitHub/COGS119/group_fa24_massive_memory/analysis/../data/raw_data/p3duj2aujg2_1732482453733.csv
NA,null,image-keyboard-response,186,2.0.0,1153395,p3duj2aujg2,manatee,null,stimuli\EXEMPLAR\USED\Ewheelchair1.jpg,NA,NA,NA,NA,Memory,FALSE,null,NA,NA,NA,NA,/Users/martincz/GitHub/COGS119/group_fa24_massive_memory/analysis/../data/raw_data/p3duj2aujg2_1732482453733.csv
NA,null,html-keyboard-response,187,2.0.0,1153896,p3duj2aujg2,manatee,null,"<div style=""font-size:60px; color: black;"">+</div>",NA,NA,NA,NA,NA,NA,NA,NA,NA,NA,NA,/Users/martincz/GitHub/COGS119/group_fa24_massive_memory/analysis/../data/raw_data/p3duj2aujg2_1732482453733.csv
NA,null,image-keyboard-response,188,2.0.0,1155912,p3duj2aujg2,manatee,null,stimuli\EXEMPLAR\USED\Eremover2.jpg,NA,NA,NA,NA,Memory,FALSE,null,NA,NA,NA,NA,/Users/martincz/GitHub/COGS119/group_fa24_massive_memory/analysis/../data/raw_data/p3duj2aujg2_1732482453733.csv
NA,null,html-keyboard-response,189,2.0.0,1156419,p3duj2aujg2,manatee,null,"<div style=""font-size:60px; color: black;"">+</div>",NA,NA,NA,NA,NA,NA,NA,NA,NA,NA,NA,/Users/martincz/GitHub/COGS119/group_fa24_massive_memory/analysis/../data/raw_data/p3duj2aujg2_1732482453733.csv
NA,null,image-keyboard-response,190,2.0.0,1158435,p3duj2aujg2,manatee,null,stimuli\EXEMPLAR\USED\Ehanger1.jpg,NA,NA,NA,NA,Memory,FALSE,null,NA,NA,NA,NA,/Users/martincz/GitHub/COGS119/group_fa24_massive_memory/analysis/../data/raw_data/p3duj2aujg2_1732482453733.csv
NA,null,html-keyboard-response,191,2.0.0,1158949,p3duj2aujg2,manatee,null,"<div style=""font-size:60px; color: black;"">+</div>",NA,NA,NA,NA,NA,NA,NA,NA,NA,NA,NA,/Users/martincz/GitHub/COGS119/group_fa24_massive_memory/analysis/../data/raw_data/p3duj2aujg2_1732482453733.csv
NA,null,image-keyboard-response,192,2.0.0,1160962,p3duj2aujg2,manatee,null,stimuli\EXEMPLAR\USED\Eelectricbass2.jpg,NA,NA,NA,NA,Memory,FALSE,null,NA,NA,NA,NA,/Users/martincz/GitHub/COGS119/group_fa24_massive_memory/analysis/../data/raw_data/p3duj2aujg2_1732482453733.csv
NA,null,html-keyboard-response,193,2.0.0,1161475,p3duj2aujg2,manatee,null,"<div style=""font-size:60px; color: black;"">+</div>",NA,NA,NA,NA,NA,NA,NA,NA,NA,NA,NA,/Users/martincz/GitHub/COGS119/group_fa24_massive_memory/analysis/../data/raw_data/p3duj2aujg2_1732482453733.csv
NA,null,image-keyboard-response,194,2.0.0,1163483,p3duj2aujg2,manatee,null,stimuli\EXEMPLAR\USED\Erabbit2.jpg,NA,NA,NA,NA,Memory,FALSE,null,NA,NA,NA,NA,/Users/martincz/GitHub/COGS119/group_fa24_massive_memory/analysis/../data/raw_data/p3duj2aujg2_1732482453733.csv
NA,null,html-keyboard-response,195,2.0.0,1163989,p3duj2aujg2,manatee,null,"<div style=""font-size:60px; color: black;"">+</div>",NA,NA,NA,NA,NA,NA,NA,NA,NA,NA,NA,/Users/martincz/GitHub/COGS119/group_fa24_massive_memory/analysis/../data/raw_data/p3duj2aujg2_1732482453733.csv
NA,null,image-keyboard-response,196,2.0.0,1166000,p3duj2aujg2,manatee,null,stimuli\STATE\USED\Sbureau2.JPG,NA,NA,NA,NA,Memory,FALSE,null,NA,NA,NA,NA,/Users/martincz/GitHub/COGS119/group_fa24_massive_memory/analysis/../data/raw_data/p3duj2aujg2_1732482453733.csv
NA,null,html-keyboard-response,197,2.0.0,1166511,p3duj2aujg2,manatee,null,"<div style=""font-size:60px; color: black;"">+</div>",NA,NA,NA,NA,NA,NA,NA,NA,NA,NA,NA,/Users/martincz/GitHub/COGS119/group_fa24_massive_memory/analysis/../data/raw_data/p3duj2aujg2_1732482453733.csv
NA,1039,image-keyboard-response,198,2.0.0,1168528,p3duj2aujg2,manatee,NA,stimuli\EXEMPLAR\USED\Ehanger1.jpg,NA,NA,NA,NA,Memory,TRUE,true,NA,NA,NA,NA,/Users/martincz/GitHub/COGS119/group_fa24_massive_memory/analysis/../data/raw_data/p3duj2aujg2_1732482453733.csv
NA,null,html-keyboard-response,199,2.0.0,1169029,p3duj2aujg2,manatee,null,"<div style=""font-size:60px; color: green;"">+</div>",NA,NA,NA,NA,NA,NA,NA,NA,NA,NA,NA,/Users/martincz/GitHub/COGS119/group_fa24_massive_memory/analysis/../data/raw_data/p3duj2aujg2_1732482453733.csv
NA,null,image-keyboard-response,200,2.0.0,1171041,p3duj2aujg2,manatee,null,stimuli\STATE\USED\Sbarnmailbox1.jpg,NA,NA,NA,NA,Memory,FALSE,null,NA,NA,NA,NA,/Users/martincz/GitHub/COGS119/group_fa24_massive_memory/analysis/../data/raw_data/p3duj2aujg2_1732482453733.csv
NA,null,html-keyboard-response,201,2.0.0,1171555,p3duj2aujg2,manatee,null,"<div style=""font-size:60px; color: black;"">+</div>",NA,NA,NA,NA,NA,NA,NA,NA,NA,NA,NA,/Users/martincz/GitHub/COGS119/group_fa24_massive_memory/analysis/../data/raw_data/p3duj2aujg2_1732482453733.csv
NA,null,image-keyboard-response,202,2.0.0,1173572,p3duj2aujg2,manatee,null,stimuli\STATE\USED\Spumpkinpie2.jpg,NA,NA,NA,NA,Memory,FALSE,null,NA,NA,NA,NA,/Users/martincz/GitHub/COGS119/group_fa24_massive_memory/analysis/../data/raw_data/p3duj2aujg2_1732482453733.csv
NA,null,html-keyboard-response,203,2.0.0,1174082,p3duj2aujg2,manatee,null,"<div style=""font-size:60px; color: black;"">+</div>",NA,NA,NA,NA,NA,NA,NA,NA,NA,NA,NA,/Users/martincz/GitHub/COGS119/group_fa24_massive_memory/analysis/../data/raw_data/p3duj2aujg2_1732482453733.csv
NA,null,image-keyboard-response,204,2.0.0,1176092,p3duj2aujg2,manatee,null,stimuli\STATE\USED\Sdoughhands2.jpg,NA,NA,NA,NA,Memory,FALSE,null,NA,NA,NA,NA,/Users/martincz/GitHub/COGS119/group_fa24_massive_memory/analysis/../data/raw_data/p3duj2aujg2_1732482453733.csv
NA,null,html-keyboard-response,205,2.0.0,1176608,p3duj2aujg2,manatee,null,"<div style=""font-size:60px; color: black;"">+</div>",NA,NA,NA,NA,NA,NA,NA,NA,NA,NA,NA,/Users/martincz/GitHub/COGS119/group_fa24_massive_memory/analysis/../data/raw_data/p3duj2aujg2_1732482453733.csv
NA,null,image-keyboard-response,206,2.0.0,1178620,p3duj2aujg2,manatee,null,stimuli\STATE\USED\Sphoneold2.jpg,NA,NA,NA,NA,Memory,FALSE,null,NA,NA,NA,NA,/Users/martincz/GitHub/COGS119/group_fa24_massive_memory/analysis/../data/raw_data/p3duj2aujg2_1732482453733.csv
NA,null,html-keyboard-response,207,2.0.0,1179129,p3duj2aujg2,manatee,null,"<div style=""font-size:60px; color: black;"">+</div>",NA,NA,NA,NA,NA,NA,NA,NA,NA,NA,NA,/Users/martincz/GitHub/COGS119/group_fa24_massive_memory/analysis/../data/raw_data/p3duj2aujg2_1732482453733.csv
NA,715,image-keyboard-response,208,2.0.0,1181142,p3duj2aujg2,manatee,NA,stimuli\STATE\USED\Sbarnmailbox1.jpg,NA,NA,NA,NA,Memory,TRUE,true,NA,NA,NA,NA,/Users/martincz/GitHub/COGS119/group_fa24_massive_memory/analysis/../data/raw_data/p3duj2aujg2_1732482453733.csv
NA,null,html-keyboard-response,209,2.0.0,1181643,p3duj2aujg2,manatee,null,"<div style=""font-size:60px; color: green;"">+</div>",NA,NA,NA,NA,NA,NA,NA,NA,NA,NA,NA,/Users/martincz/GitHub/COGS119/group_fa24_massive_memory/analysis/../data/raw_data/p3duj2aujg2_1732482453733.csv
NA,2110,html-button-response,210,2.0.0,1183754,p3duj2aujg2,manatee,0,Are you still there?,NA,NA,NA,NA,Attention Check,NA,NA,NA,NA,NA,NA,/Users/martincz/GitHub/COGS119/group_fa24_massive_memory/analysis/../data/raw_data/p3duj2aujg2_1732482453733.csv
NA,null,image-keyboard-response,211,2.0.0,1185769,p3duj2aujg2,manatee,null,stimuli\STATE\USED\Scontainer1.JPG,NA,NA,NA,NA,Memory,FALSE,null,NA,NA,NA,NA,/Users/martincz/GitHub/COGS119/group_fa24_massive_memory/analysis/../data/raw_data/p3duj2aujg2_1732482453733.csv
NA,null,html-keyboard-response,212,2.0.0,1186285,p3duj2aujg2,manatee,null,"<div style=""font-size:60px; color: black;"">+</div>",NA,NA,NA,NA,NA,NA,NA,NA,NA,NA,NA,/Users/martincz/GitHub/COGS119/group_fa24_massive_memory/analysis/../data/raw_data/p3duj2aujg2_1732482453733.csv
NA,null,image-keyboard-response,213,2.0.0,1188302,p3duj2aujg2,manatee,null,stimuli\STATE\USED\Sbook1.JPG,NA,NA,NA,NA,Memory,FALSE,null,NA,NA,NA,NA,/Users/martincz/GitHub/COGS119/group_fa24_massive_memory/analysis/../data/raw_data/p3duj2aujg2_1732482453733.csv
NA,null,html-keyboard-response,214,2.0.0,1188811,p3duj2aujg2,manatee,null,"<div style=""font-size:60px; color: black;"">+</div>",NA,NA,NA,NA,NA,NA,NA,NA,NA,NA,NA,/Users/martincz/GitHub/COGS119/group_fa24_massive_memory/analysis/../data/raw_data/p3duj2aujg2_1732482453733.csv
NA,null,image-keyboard-response,215,2.0.0,1190814,p3duj2aujg2,manatee,null,stimuli\EXEMPLAR\USED\Emoney1.jpg,NA,NA,NA,NA,Memory,FALSE,null,NA,NA,NA,NA,/Users/martincz/GitHub/COGS119/group_fa24_massive_memory/analysis/../data/raw_data/p3duj2aujg2_1732482453733.csv
NA,null,html-keyboard-response,216,2.0.0,1191321,p3duj2aujg2,manatee,null,"<div style=""font-size:60px; color: black;"">+</div>",NA,NA,NA,NA,NA,NA,NA,NA,NA,NA,NA,/Users/martincz/GitHub/COGS119/group_fa24_massive_memory/analysis/../data/raw_data/p3duj2aujg2_1732482453733.csv
NA,null,image-keyboard-response,217,2.0.0,1193326,p3duj2aujg2,manatee,null,stimuli\STATE\USED\Shairbrush2.jpg,NA,NA,NA,NA,Memory,FALSE,null,NA,NA,NA,NA,/Users/martincz/GitHub/COGS119/group_fa24_massive_memory/analysis/../data/raw_data/p3duj2aujg2_1732482453733.csv
NA,null,html-keyboard-response,218,2.0.0,1193830,p3duj2aujg2,manatee,null,"<div style=""font-size:60px; color: black;"">+</div>",NA,NA,NA,NA,NA,NA,NA,NA,NA,NA,NA,/Users/martincz/GitHub/COGS119/group_fa24_massive_memory/analysis/../data/raw_data/p3duj2aujg2_1732482453733.csv
NA,null,image-keyboard-response,219,2.0.0,1195833,p3duj2aujg2,manatee,null,stimuli\STATE\USED\Smedicaltape2.jpg,NA,NA,NA,NA,Memory,FALSE,null,NA,NA,NA,NA,/Users/martincz/GitHub/COGS119/group_fa24_massive_memory/analysis/../data/raw_data/p3duj2aujg2_1732482453733.csv
NA,null,html-keyboard-response,220,2.0.0,1196339,p3duj2aujg2,manatee,null,"<div style=""font-size:60px; color: black;"">+</div>",NA,NA,NA,NA,NA,NA,NA,NA,NA,NA,NA,/Users/martincz/GitHub/COGS119/group_fa24_massive_memory/analysis/../data/raw_data/p3duj2aujg2_1732482453733.csv
NA,null,image-keyboard-response,221,2.0.0,1198347,p3duj2aujg2,manatee,null,stimuli\STATE\USED\Sflask1.jpg,NA,NA,NA,NA,Memory,FALSE,null,NA,NA,NA,NA,/Users/martincz/GitHub/COGS119/group_fa24_massive_memory/analysis/../data/raw_data/p3duj2aujg2_1732482453733.csv
NA,null,html-keyboard-response,222,2.0.0,1198853,p3duj2aujg2,manatee,null,"<div style=""font-size:60px; color: black;"">+</div>",NA,NA,NA,NA,NA,NA,NA,NA,NA,NA,NA,/Users/martincz/GitHub/COGS119/group_fa24_massive_memory/analysis/../data/raw_data/p3duj2aujg2_1732482453733.csv
NA,null,image-keyboard-response,223,2.0.0,1200870,p3duj2aujg2,manatee,null,stimuli\EXEMPLAR\USED\Ecake1.jpg,NA,NA,NA,NA,Memory,FALSE,null,NA,NA,NA,NA,/Users/martincz/GitHub/COGS119/group_fa24_massive_memory/analysis/../data/raw_data/p3duj2aujg2_1732482453733.csv
NA,null,html-keyboard-response,224,2.0.0,1201382,p3duj2aujg2,manatee,null,"<div style=""font-size:60px; color: black;"">+</div>",NA,NA,NA,NA,NA,NA,NA,NA,NA,NA,NA,/Users/martincz/GitHub/COGS119/group_fa24_massive_memory/analysis/../data/raw_data/p3duj2aujg2_1732482453733.csv
NA,830,image-keyboard-response,225,2.0.0,1203396,p3duj2aujg2,manatee,NA,stimuli\STATE\USED\Shairbrush2.jpg,NA,NA,NA,NA,Memory,TRUE,true,NA,NA,NA,NA,/Users/martincz/GitHub/COGS119/group_fa24_massive_memory/analysis/../data/raw_data/p3duj2aujg2_1732482453733.csv
NA,null,html-keyboard-response,226,2.0.0,1203905,p3duj2aujg2,manatee,null,"<div style=""font-size:60px; color: green;"">+</div>",NA,NA,NA,NA,NA,NA,NA,NA,NA,NA,NA,/Users/martincz/GitHub/COGS119/group_fa24_massive_memory/analysis/../data/raw_data/p3duj2aujg2_1732482453733.csv
NA,null,image-keyboard-response,227,2.0.0,1205922,p3duj2aujg2,manatee,null,stimuli\EXEMPLAR\USED\Etoywrench1.jpg,NA,NA,NA,NA,Memory,FALSE,null,NA,NA,NA,NA,/Users/martincz/GitHub/COGS119/group_fa24_massive_memory/analysis/../data/raw_data/p3duj2aujg2_1732482453733.csv
NA,null,html-keyboard-response,228,2.0.0,1206432,p3duj2aujg2,manatee,null,"<div style=""font-size:60px; color: black;"">+</div>",NA,NA,NA,NA,NA,NA,NA,NA,NA,NA,NA,/Users/martincz/GitHub/COGS119/group_fa24_massive_memory/analysis/../data/raw_data/p3duj2aujg2_1732482453733.csv
NA,null,image-keyboard-response,229,2.0.0,1208437,p3duj2aujg2,manatee,null,stimuli\EXEMPLAR\USED\Emuffler1.jpg,NA,NA,NA,NA,Memory,FALSE,null,NA,NA,NA,NA,/Users/martincz/GitHub/COGS119/group_fa24_massive_memory/analysis/../data/raw_data/p3duj2aujg2_1732482453733.csv
NA,null,html-keyboard-response,230,2.0.0,1208951,p3duj2aujg2,manatee,null,"<div style=""font-size:60px; color: black;"">+</div>",NA,NA,NA,NA,NA,NA,NA,NA,NA,NA,NA,/Users/martincz/GitHub/COGS119/group_fa24_massive_memory/analysis/../data/raw_data/p3duj2aujg2_1732482453733.csv
NA,null,image-keyboard-response,231,2.0.0,1210967,p3duj2aujg2,manatee,null,stimuli\STATE\USED\Srhino2.jpg,NA,NA,NA,NA,Memory,FALSE,null,NA,NA,NA,NA,/Users/martincz/GitHub/COGS119/group_fa24_massive_memory/analysis/../data/raw_data/p3duj2aujg2_1732482453733.csv
NA,null,html-keyboard-response,232,2.0.0,1211479,p3duj2aujg2,manatee,null,"<div style=""font-size:60px; color: black;"">+</div>",NA,NA,NA,NA,NA,NA,NA,NA,NA,NA,NA,/Users/martincz/GitHub/COGS119/group_fa24_massive_memory/analysis/../data/raw_data/p3duj2aujg2_1732482453733.csv
NA,null,image-keyboard-response,233,2.0.0,1213485,p3duj2aujg2,manatee,null,stimuli\STATE\USED\Sboxwhite1.jpg,NA,NA,NA,NA,Memory,FALSE,null,NA,NA,NA,NA,/Users/martincz/GitHub/COGS119/group_fa24_massive_memory/analysis/../data/raw_data/p3duj2aujg2_1732482453733.csv
NA,null,html-keyboard-response,234,2.0.0,1213996,p3duj2aujg2,manatee,null,"<div style=""font-size:60px; color: black;"">+</div>",NA,NA,NA,NA,NA,NA,NA,NA,NA,NA,NA,/Users/martincz/GitHub/COGS119/group_fa24_massive_memory/analysis/../data/raw_data/p3duj2aujg2_1732482453733.csv
NA,null,image-keyboard-response,235,2.0.0,1216006,p3duj2aujg2,manatee,null,stimuli\EXEMPLAR\USED\Etrowel2.jpg,NA,NA,NA,NA,Memory,FALSE,null,NA,NA,NA,NA,/Users/martincz/GitHub/COGS119/group_fa24_massive_memory/analysis/../data/raw_data/p3duj2aujg2_1732482453733.csv
NA,null,html-keyboard-response,236,2.0.0,1216517,p3duj2aujg2,manatee,null,"<div style=""font-size:60px; color: black;"">+</div>",NA,NA,NA,NA,NA,NA,NA,NA,NA,NA,NA,/Users/martincz/GitHub/COGS119/group_fa24_massive_memory/analysis/../data/raw_data/p3duj2aujg2_1732482453733.csv
NA,null,image-keyboard-response,237,2.0.0,1218527,p3duj2aujg2,manatee,null,stimuli\EXEMPLAR\USED\Ehelmet2.jpg,NA,NA,NA,NA,Memory,FALSE,null,NA,NA,NA,NA,/Users/martincz/GitHub/COGS119/group_fa24_massive_memory/analysis/../data/raw_data/p3duj2aujg2_1732482453733.csv
NA,null,html-keyboard-response,238,2.0.0,1219029,p3duj2aujg2,manatee,null,"<div style=""font-size:60px; color: black;"">+</div>",NA,NA,NA,NA,NA,NA,NA,NA,NA,NA,NA,/Users/martincz/GitHub/COGS119/group_fa24_massive_memory/analysis/../data/raw_data/p3duj2aujg2_1732482453733.csv
NA,null,image-keyboard-response,239,2.0.0,1221033,p3duj2aujg2,manatee,null,stimuli\STATE\USED\Spie1.JPG,NA,NA,NA,NA,Memory,FALSE,null,NA,NA,NA,NA,/Users/martincz/GitHub/COGS119/group_fa24_massive_memory/analysis/../data/raw_data/p3duj2aujg2_1732482453733.csv
NA,null,html-keyboard-response,240,2.0.0,1221546,p3duj2aujg2,manatee,null,"<div style=""font-size:60px; color: black;"">+</div>",NA,NA,NA,NA,NA,NA,NA,NA,NA,NA,NA,/Users/martincz/GitHub/COGS119/group_fa24_massive_memory/analysis/../data/raw_data/p3duj2aujg2_1732482453733.csv
NA,null,image-keyboard-response,241,2.0.0,1223556,p3duj2aujg2,manatee,null,stimuli\STATE\USED\Sboxwhite1.jpg,NA,NA,NA,NA,Memory,TRUE,null,NA,NA,NA,NA,/Users/martincz/GitHub/COGS119/group_fa24_massive_memory/analysis/../data/raw_data/p3duj2aujg2_1732482453733.csv
NA,null,html-keyboard-response,242,2.0.0,1224063,p3duj2aujg2,manatee,null,"<div style=""font-size:60px; color: black;"">+</div>",NA,NA,NA,NA,NA,NA,NA,NA,NA,NA,NA,/Users/martincz/GitHub/COGS119/group_fa24_massive_memory/analysis/../data/raw_data/p3duj2aujg2_1732482453733.csv
NA,null,image-keyboard-response,243,2.0.0,1226078,p3duj2aujg2,manatee,null,stimuli\EXEMPLAR\USED\Etractor1.jpg,NA,NA,NA,NA,Memory,FALSE,null,NA,NA,NA,NA,/Users/martincz/GitHub/COGS119/group_fa24_massive_memory/analysis/../data/raw_data/p3duj2aujg2_1732482453733.csv
NA,null,html-keyboard-response,244,2.0.0,1226593,p3duj2aujg2,manatee,null,"<div style=""font-size:60px; color: black;"">+</div>",NA,NA,NA,NA,NA,NA,NA,NA,NA,NA,NA,/Users/martincz/GitHub/COGS119/group_fa24_massive_memory/analysis/../data/raw_data/p3duj2aujg2_1732482453733.csv
NA,null,image-keyboard-response,245,2.0.0,1228603,p3duj2aujg2,manatee,null,stimuli\EXEMPLAR\USED\Eremote1.jpg,NA,NA,NA,NA,Memory,FALSE,null,NA,NA,NA,NA,/Users/martincz/GitHub/COGS119/group_fa24_massive_memory/analysis/../data/raw_data/p3duj2aujg2_1732482453733.csv
NA,null,html-keyboard-response,246,2.0.0,1229108,p3duj2aujg2,manatee,null,"<div style=""font-size:60px; color: black;"">+</div>",NA,NA,NA,NA,NA,NA,NA,NA,NA,NA,NA,/Users/martincz/GitHub/COGS119/group_fa24_massive_memory/analysis/../data/raw_data/p3duj2aujg2_1732482453733.csv
NA,null,image-keyboard-response,247,2.0.0,1231124,p3duj2aujg2,manatee,null,stimuli\EXEMPLAR\USED\Eheadphones2.jpg,NA,NA,NA,NA,Memory,FALSE,null,NA,NA,NA,NA,/Users/martincz/GitHub/COGS119/group_fa24_massive_memory/analysis/../data/raw_data/p3duj2aujg2_1732482453733.csv
NA,null,html-keyboard-response,248,2.0.0,1231637,p3duj2aujg2,manatee,null,"<div style=""font-size:60px; color: black;"">+</div>",NA,NA,NA,NA,NA,NA,NA,NA,NA,NA,NA,/Users/martincz/GitHub/COGS119/group_fa24_massive_memory/analysis/../data/raw_data/p3duj2aujg2_1732482453733.csv
NA,null,image-keyboard-response,249,2.0.0,1233648,p3duj2aujg2,manatee,null,stimuli\EXEMPLAR\USED\Eplate1.jpg,NA,NA,NA,NA,Memory,FALSE,null,NA,NA,NA,NA,/Users/martincz/GitHub/COGS119/group_fa24_massive_memory/analysis/../data/raw_data/p3duj2aujg2_1732482453733.csv
NA,null,html-keyboard-response,250,2.0.0,1234150,p3duj2aujg2,manatee,null,"<div style=""font-size:60px; color: black;"">+</div>",NA,NA,NA,NA,NA,NA,NA,NA,NA,NA,NA,/Users/martincz/GitHub/COGS119/group_fa24_massive_memory/analysis/../data/raw_data/p3duj2aujg2_1732482453733.csv
NA,null,image-keyboard-response,251,2.0.0,1236152,p3duj2aujg2,manatee,null,stimuli\EXEMPLAR\USED\Esantahat2.jpg,NA,NA,NA,NA,Memory,FALSE,null,NA,NA,NA,NA,/Users/martincz/GitHub/COGS119/group_fa24_massive_memory/analysis/../data/raw_data/p3duj2aujg2_1732482453733.csv
NA,null,html-keyboard-response,252,2.0.0,1236660,p3duj2aujg2,manatee,null,"<div style=""font-size:60px; color: black;"">+</div>",NA,NA,NA,NA,NA,NA,NA,NA,NA,NA,NA,/Users/martincz/GitHub/COGS119/group_fa24_massive_memory/analysis/../data/raw_data/p3duj2aujg2_1732482453733.csv
NA,null,image-keyboard-response,253,2.0.0,1238667,p3duj2aujg2,manatee,null,stimuli\EXEMPLAR\USED\Ebinoculars2.jpg,NA,NA,NA,NA,Memory,FALSE,null,NA,NA,NA,NA,/Users/martincz/GitHub/COGS119/group_fa24_massive_memory/analysis/../data/raw_data/p3duj2aujg2_1732482453733.csv
NA,null,html-keyboard-response,254,2.0.0,1239174,p3duj2aujg2,manatee,null,"<div style=""font-size:60px; color: black;"">+</div>",NA,NA,NA,NA,NA,NA,NA,NA,NA,NA,NA,/Users/martincz/GitHub/COGS119/group_fa24_massive_memory/analysis/../data/raw_data/p3duj2aujg2_1732482453733.csv
NA,null,image-keyboard-response,255,2.0.0,1241176,p3duj2aujg2,manatee,null,stimuli\STATE\USED\Scoffeemaker2.JPG,NA,NA,NA,NA,Memory,FALSE,null,NA,NA,NA,NA,/Users/martincz/GitHub/COGS119/group_fa24_massive_memory/analysis/../data/raw_data/p3duj2aujg2_1732482453733.csv
NA,null,html-keyboard-response,256,2.0.0,1241684,p3duj2aujg2,manatee,null,"<div style=""font-size:60px; color: black;"">+</div>",NA,NA,NA,NA,NA,NA,NA,NA,NA,NA,NA,/Users/martincz/GitHub/COGS119/group_fa24_massive_memory/analysis/../data/raw_data/p3duj2aujg2_1732482453733.csv
NA,null,image-keyboard-response,257,2.0.0,1243690,p3duj2aujg2,manatee,null,stimuli\EXEMPLAR\USED\Eplate1.jpg,NA,NA,NA,NA,Memory,TRUE,null,NA,NA,NA,NA,/Users/martincz/GitHub/COGS119/group_fa24_massive_memory/analysis/../data/raw_data/p3duj2aujg2_1732482453733.csv
NA,null,html-keyboard-response,258,2.0.0,1244206,p3duj2aujg2,manatee,null,"<div style=""font-size:60px; color: black;"">+</div>",NA,NA,NA,NA,NA,NA,NA,NA,NA,NA,NA,/Users/martincz/GitHub/COGS119/group_fa24_massive_memory/analysis/../data/raw_data/p3duj2aujg2_1732482453733.csv
NA,null,image-keyboard-response,259,2.0.0,1246208,p3duj2aujg2,manatee,null,stimuli\STATE\USED\Stypewriter2.jpg,NA,NA,NA,NA,Memory,FALSE,null,NA,NA,NA,NA,/Users/martincz/GitHub/COGS119/group_fa24_massive_memory/analysis/../data/raw_data/p3duj2aujg2_1732482453733.csv
NA,null,html-keyboard-response,260,2.0.0,1246720,p3duj2aujg2,manatee,null,"<div style=""font-size:60px; color: black;"">+</div>",NA,NA,NA,NA,NA,NA,NA,NA,NA,NA,NA,/Users/martincz/GitHub/COGS119/group_fa24_massive_memory/analysis/../data/raw_data/p3duj2aujg2_1732482453733.csv
NA,null,image-keyboard-response,261,2.0.0,1248725,p3duj2aujg2,manatee,null,stimuli\EXEMPLAR\USED\Etongs2.jpg,NA,NA,NA,NA,Memory,FALSE,null,NA,NA,NA,NA,/Users/martincz/GitHub/COGS119/group_fa24_massive_memory/analysis/../data/raw_data/p3duj2aujg2_1732482453733.csv
NA,null,html-keyboard-response,262,2.0.0,1249238,p3duj2aujg2,manatee,null,"<div style=""font-size:60px; color: black;"">+</div>",NA,NA,NA,NA,NA,NA,NA,NA,NA,NA,NA,/Users/martincz/GitHub/COGS119/group_fa24_massive_memory/analysis/../data/raw_data/p3duj2aujg2_1732482453733.csv
NA,null,image-keyboard-response,263,2.0.0,1251247,p3duj2aujg2,manatee,null,stimuli\STATE\USED\Saccordion1.jpg,NA,NA,NA,NA,Memory,FALSE,null,NA,NA,NA,NA,/Users/martincz/GitHub/COGS119/group_fa24_massive_memory/analysis/../data/raw_data/p3duj2aujg2_1732482453733.csv
NA,null,html-keyboard-response,264,2.0.0,1251752,p3duj2aujg2,manatee,null,"<div style=""font-size:60px; color: black;"">+</div>",NA,NA,NA,NA,NA,NA,NA,NA,NA,NA,NA,/Users/martincz/GitHub/COGS119/group_fa24_massive_memory/analysis/../data/raw_data/p3duj2aujg2_1732482453733.csv
NA,null,image-keyboard-response,265,2.0.0,1253761,p3duj2aujg2,manatee,null,stimuli\EXEMPLAR\USED\Enozzle2.jpg,NA,NA,NA,NA,Memory,FALSE,null,NA,NA,NA,NA,/Users/martincz/GitHub/COGS119/group_fa24_massive_memory/analysis/../data/raw_data/p3duj2aujg2_1732482453733.csv
NA,null,html-keyboard-response,266,2.0.0,1254272,p3duj2aujg2,manatee,null,"<div style=""font-size:60px; color: black;"">+</div>",NA,NA,NA,NA,NA,NA,NA,NA,NA,NA,NA,/Users/martincz/GitHub/COGS119/group_fa24_massive_memory/analysis/../data/raw_data/p3duj2aujg2_1732482453733.csv
NA,null,image-keyboard-response,267,2.0.0,1256285,p3duj2aujg2,manatee,null,stimuli\EXEMPLAR\USED\Eframe1.jpg,NA,NA,NA,NA,Memory,FALSE,null,NA,NA,NA,NA,/Users/martincz/GitHub/COGS119/group_fa24_massive_memory/analysis/../data/raw_data/p3duj2aujg2_1732482453733.csv
NA,null,html-keyboard-response,268,2.0.0,1256793,p3duj2aujg2,manatee,null,"<div style=""font-size:60px; color: black;"">+</div>",NA,NA,NA,NA,NA,NA,NA,NA,NA,NA,NA,/Users/martincz/GitHub/COGS119/group_fa24_massive_memory/analysis/../data/raw_data/p3duj2aujg2_1732482453733.csv
NA,null,image-keyboard-response,269,2.0.0,1258810,p3duj2aujg2,manatee,null,stimuli\STATE\USED\Sgiftbox2.jpg,NA,NA,NA,NA,Memory,FALSE,null,NA,NA,NA,NA,/Users/martincz/GitHub/COGS119/group_fa24_massive_memory/analysis/../data/raw_data/p3duj2aujg2_1732482453733.csv
NA,null,html-keyboard-response,270,2.0.0,1259320,p3duj2aujg2,manatee,null,"<div style=""font-size:60px; color: black;"">+</div>",NA,NA,NA,NA,NA,NA,NA,NA,NA,NA,NA,/Users/martincz/GitHub/COGS119/group_fa24_massive_memory/analysis/../data/raw_data/p3duj2aujg2_1732482453733.csv
NA,950,image-keyboard-response,271,2.0.0,1261329,p3duj2aujg2,manatee,NA,stimuli\STATE\USED\Saccordion1.jpg,NA,NA,NA,NA,Memory,TRUE,true,NA,NA,NA,NA,/Users/martincz/GitHub/COGS119/group_fa24_massive_memory/analysis/../data/raw_data/p3duj2aujg2_1732482453733.csv
NA,null,html-keyboard-response,272,2.0.0,1261841,p3duj2aujg2,manatee,null,"<div style=""font-size:60px; color: green;"">+</div>",NA,NA,NA,NA,NA,NA,NA,NA,NA,NA,NA,/Users/martincz/GitHub/COGS119/group_fa24_massive_memory/analysis/../data/raw_data/p3duj2aujg2_1732482453733.csv
NA,null,image-keyboard-response,273,2.0.0,1263854,p3duj2aujg2,manatee,null,stimuli\EXEMPLAR\USED\Espraybottle1.jpg,NA,NA,NA,NA,Memory,FALSE,null,NA,NA,NA,NA,/Users/martincz/GitHub/COGS119/group_fa24_massive_memory/analysis/../data/raw_data/p3duj2aujg2_1732482453733.csv
NA,null,html-keyboard-response,274,2.0.0,1264360,p3duj2aujg2,manatee,null,"<div style=""font-size:60px; color: black;"">+</div>",NA,NA,NA,NA,NA,NA,NA,NA,NA,NA,NA,/Users/martincz/GitHub/COGS119/group_fa24_massive_memory/analysis/../data/raw_data/p3duj2aujg2_1732482453733.csv
NA,null,image-keyboard-response,275,2.0.0,1266376,p3duj2aujg2,manatee,null,stimuli\EXEMPLAR\USED\Eglobe2.jpg,NA,NA,NA,NA,Memory,FALSE,null,NA,NA,NA,NA,/Users/martincz/GitHub/COGS119/group_fa24_massive_memory/analysis/../data/raw_data/p3duj2aujg2_1732482453733.csv
NA,null,html-keyboard-response,276,2.0.0,1266884,p3duj2aujg2,manatee,null,"<div style=""font-size:60px; color: black;"">+</div>",NA,NA,NA,NA,NA,NA,NA,NA,NA,NA,NA,/Users/martincz/GitHub/COGS119/group_fa24_massive_memory/analysis/../data/raw_data/p3duj2aujg2_1732482453733.csv
NA,null,image-keyboard-response,277,2.0.0,1268897,p3duj2aujg2,manatee,null,stimuli\EXEMPLAR\USED\Emicroscope1.jpg,NA,NA,NA,NA,Memory,FALSE,null,NA,NA,NA,NA,/Users/martincz/GitHub/COGS119/group_fa24_massive_memory/analysis/../data/raw_data/p3duj2aujg2_1732482453733.csv
NA,null,html-keyboard-response,278,2.0.0,1269407,p3duj2aujg2,manatee,null,"<div style=""font-size:60px; color: black;"">+</div>",NA,NA,NA,NA,NA,NA,NA,NA,NA,NA,NA,/Users/martincz/GitHub/COGS119/group_fa24_massive_memory/analysis/../data/raw_data/p3duj2aujg2_1732482453733.csv
NA,null,image-keyboard-response,279,2.0.0,1271422,p3duj2aujg2,manatee,null,stimuli\STATE\USED\Sschoolbag2.JPG,NA,NA,NA,NA,Memory,FALSE,null,NA,NA,NA,NA,/Users/martincz/GitHub/COGS119/group_fa24_massive_memory/analysis/../data/raw_data/p3duj2aujg2_1732482453733.csv
NA,null,html-keyboard-response,280,2.0.0,1271938,p3duj2aujg2,manatee,null,"<div style=""font-size:60px; color: black;"">+</div>",NA,NA,NA,NA,NA,NA,NA,NA,NA,NA,NA,/Users/martincz/GitHub/COGS119/group_fa24_massive_memory/analysis/../data/raw_data/p3duj2aujg2_1732482453733.csv
NA,null,image-keyboard-response,281,2.0.0,1273950,p3duj2aujg2,manatee,null,stimuli\EXEMPLAR\USED\Edinosaur2.jpg,NA,NA,NA,NA,Memory,FALSE,null,NA,NA,NA,NA,/Users/martincz/GitHub/COGS119/group_fa24_massive_memory/analysis/../data/raw_data/p3duj2aujg2_1732482453733.csv
NA,null,html-keyboard-response,282,2.0.0,1274452,p3duj2aujg2,manatee,null,"<div style=""font-size:60px; color: black;"">+</div>",NA,NA,NA,NA,NA,NA,NA,NA,NA,NA,NA,/Users/martincz/GitHub/COGS119/group_fa24_massive_memory/analysis/../data/raw_data/p3duj2aujg2_1732482453733.csv
NA,null,image-keyboard-response,283,2.0.0,1276455,p3duj2aujg2,manatee,null,stimuli\STATE\USED\Sbooks1.JPG,NA,NA,NA,NA,Memory,FALSE,null,NA,NA,NA,NA,/Users/martincz/GitHub/COGS119/group_fa24_massive_memory/analysis/../data/raw_data/p3duj2aujg2_1732482453733.csv
NA,null,html-keyboard-response,284,2.0.0,1276969,p3duj2aujg2,manatee,null,"<div style=""font-size:60px; color: black;"">+</div>",NA,NA,NA,NA,NA,NA,NA,NA,NA,NA,NA,/Users/martincz/GitHub/COGS119/group_fa24_massive_memory/analysis/../data/raw_data/p3duj2aujg2_1732482453733.csv
NA,null,image-keyboard-response,285,2.0.0,1278985,p3duj2aujg2,manatee,null,stimuli\EXEMPLAR\USED\Epotatochips1.jpg,NA,NA,NA,NA,Memory,FALSE,null,NA,NA,NA,NA,/Users/martincz/GitHub/COGS119/group_fa24_massive_memory/analysis/../data/raw_data/p3duj2aujg2_1732482453733.csv
NA,null,html-keyboard-response,286,2.0.0,1279494,p3duj2aujg2,manatee,null,"<div style=""font-size:60px; color: black;"">+</div>",NA,NA,NA,NA,NA,NA,NA,NA,NA,NA,NA,/Users/martincz/GitHub/COGS119/group_fa24_massive_memory/analysis/../data/raw_data/p3duj2aujg2_1732482453733.csv
NA,713,image-keyboard-response,287,2.0.0,1281498,p3duj2aujg2,manatee,NA,stimuli\STATE\USED\Sschoolbag2.JPG,NA,NA,NA,NA,Memory,TRUE,true,NA,NA,NA,NA,/Users/martincz/GitHub/COGS119/group_fa24_massive_memory/analysis/../data/raw_data/p3duj2aujg2_1732482453733.csv
NA,null,html-keyboard-response,288,2.0.0,1282007,p3duj2aujg2,manatee,null,"<div style=""font-size:60px; color: green;"">+</div>",NA,NA,NA,NA,NA,NA,NA,NA,NA,NA,NA,/Users/martincz/GitHub/COGS119/group_fa24_massive_memory/analysis/../data/raw_data/p3duj2aujg2_1732482453733.csv
NA,null,image-keyboard-response,289,2.0.0,1284014,p3duj2aujg2,manatee,null,stimuli\STATE\USED\Slaptop1.JPG,NA,NA,NA,NA,Memory,FALSE,null,NA,NA,NA,NA,/Users/martincz/GitHub/COGS119/group_fa24_massive_memory/analysis/../data/raw_data/p3duj2aujg2_1732482453733.csv
NA,null,html-keyboard-response,290,2.0.0,1284525,p3duj2aujg2,manatee,null,"<div style=""font-size:60px; color: black;"">+</div>",NA,NA,NA,NA,NA,NA,NA,NA,NA,NA,NA,/Users/martincz/GitHub/COGS119/group_fa24_massive_memory/analysis/../data/raw_data/p3duj2aujg2_1732482453733.csv
NA,null,image-keyboard-response,291,2.0.0,1286530,p3duj2aujg2,manatee,null,stimuli\EXEMPLAR\USED\Eteapot2.JPG,NA,NA,NA,NA,Memory,FALSE,null,NA,NA,NA,NA,/Users/martincz/GitHub/COGS119/group_fa24_massive_memory/analysis/../data/raw_data/p3duj2aujg2_1732482453733.csv
NA,null,html-keyboard-response,292,2.0.0,1287032,p3duj2aujg2,manatee,null,"<div style=""font-size:60px; color: black;"">+</div>",NA,NA,NA,NA,NA,NA,NA,NA,NA,NA,NA,/Users/martincz/GitHub/COGS119/group_fa24_massive_memory/analysis/../data/raw_data/p3duj2aujg2_1732482453733.csv
NA,null,image-keyboard-response,293,2.0.0,1289047,p3duj2aujg2,manatee,null,stimuli\STATE\USED\Sseatbelt2.jpg,NA,NA,NA,NA,Memory,FALSE,null,NA,NA,NA,NA,/Users/martincz/GitHub/COGS119/group_fa24_massive_memory/analysis/../data/raw_data/p3duj2aujg2_1732482453733.csv
NA,null,html-keyboard-response,294,2.0.0,1289554,p3duj2aujg2,manatee,null,"<div style=""font-size:60px; color: black;"">+</div>",NA,NA,NA,NA,NA,NA,NA,NA,NA,NA,NA,/Users/martincz/GitHub/COGS119/group_fa24_massive_memory/analysis/../data/raw_data/p3duj2aujg2_1732482453733.csv
NA,null,image-keyboard-response,295,2.0.0,1291566,p3duj2aujg2,manatee,null,stimuli\STATE\USED\Scooker2.jpg,NA,NA,NA,NA,Memory,FALSE,null,NA,NA,NA,NA,/Users/martincz/GitHub/COGS119/group_fa24_massive_memory/analysis/../data/raw_data/p3duj2aujg2_1732482453733.csv
NA,null,html-keyboard-response,296,2.0.0,1292067,p3duj2aujg2,manatee,null,"<div style=""font-size:60px; color: black;"">+</div>",NA,NA,NA,NA,NA,NA,NA,NA,NA,NA,NA,/Users/martincz/GitHub/COGS119/group_fa24_massive_memory/analysis/../data/raw_data/p3duj2aujg2_1732482453733.csv
NA,null,image-keyboard-response,297,2.0.0,1294069,p3duj2aujg2,manatee,null,stimuli\EXEMPLAR\USED\Echeeses1.jpg,NA,NA,NA,NA,Memory,FALSE,null,NA,NA,NA,NA,/Users/martincz/GitHub/COGS119/group_fa24_massive_memory/analysis/../data/raw_data/p3duj2aujg2_1732482453733.csv
NA,null,html-keyboard-response,298,2.0.0,1294578,p3duj2aujg2,manatee,null,"<div style=""font-size:60px; color: black;"">+</div>",NA,NA,NA,NA,NA,NA,NA,NA,NA,NA,NA,/Users/martincz/GitHub/COGS119/group_fa24_massive_memory/analysis/../data/raw_data/p3duj2aujg2_1732482453733.csv
NA,930,image-keyboard-response,299,2.0.0,1296595,p3duj2aujg2,manatee,NA,stimuli\EXEMPLAR\USED\Eteapot2.JPG,NA,NA,NA,NA,Memory,TRUE,true,NA,NA,NA,NA,/Users/martincz/GitHub/COGS119/group_fa24_massive_memory/analysis/../data/raw_data/p3duj2aujg2_1732482453733.csv
NA,null,html-keyboard-response,300,2.0.0,1297109,p3duj2aujg2,manatee,null,"<div style=""font-size:60px; color: green;"">+</div>",NA,NA,NA,NA,NA,NA,NA,NA,NA,NA,NA,/Users/martincz/GitHub/COGS119/group_fa24_massive_memory/analysis/../data/raw_data/p3duj2aujg2_1732482453733.csv
NA,null,image-keyboard-response,301,2.0.0,1299117,p3duj2aujg2,manatee,null,stimuli\STATE\USED\Sapple1.jpg,NA,NA,NA,NA,Memory,FALSE,null,NA,NA,NA,NA,/Users/martincz/GitHub/COGS119/group_fa24_massive_memory/analysis/../data/raw_data/p3duj2aujg2_1732482453733.csv
NA,null,html-keyboard-response,302,2.0.0,1299619,p3duj2aujg2,manatee,null,"<div style=""font-size:60px; color: black;"">+</div>",NA,NA,NA,NA,NA,NA,NA,NA,NA,NA,NA,/Users/martincz/GitHub/COGS119/group_fa24_massive_memory/analysis/../data/raw_data/p3duj2aujg2_1732482453733.csv
NA,null,image-keyboard-response,303,2.0.0,1301636,p3duj2aujg2,manatee,null,stimuli\STATE\USED\Sbox2.jpg,NA,NA,NA,NA,Memory,FALSE,null,NA,NA,NA,NA,/Users/martincz/GitHub/COGS119/group_fa24_massive_memory/analysis/../data/raw_data/p3duj2aujg2_1732482453733.csv
NA,null,html-keyboard-response,304,2.0.0,1302148,p3duj2aujg2,manatee,null,"<div style=""font-size:60px; color: black;"">+</div>",NA,NA,NA,NA,NA,NA,NA,NA,NA,NA,NA,/Users/martincz/GitHub/COGS119/group_fa24_massive_memory/analysis/../data/raw_data/p3duj2aujg2_1732482453733.csv
NA,null,image-keyboard-response,305,2.0.0,1304158,p3duj2aujg2,manatee,null,stimuli\EXEMPLAR\USED\Efishbowl1.jpg,NA,NA,NA,NA,Memory,FALSE,null,NA,NA,NA,NA,/Users/martincz/GitHub/COGS119/group_fa24_massive_memory/analysis/../data/raw_data/p3duj2aujg2_1732482453733.csv
NA,null,html-keyboard-response,306,2.0.0,1304666,p3duj2aujg2,manatee,null,"<div style=""font-size:60px; color: black;"">+</div>",NA,NA,NA,NA,NA,NA,NA,NA,NA,NA,NA,/Users/martincz/GitHub/COGS119/group_fa24_massive_memory/analysis/../data/raw_data/p3duj2aujg2_1732482453733.csv
NA,null,image-keyboard-response,307,2.0.0,1306676,p3duj2aujg2,manatee,null,stimuli\STATE\USED\Spiggybank2.jpg,NA,NA,NA,NA,Memory,FALSE,null,NA,NA,NA,NA,/Users/martincz/GitHub/COGS119/group_fa24_massive_memory/analysis/../data/raw_data/p3duj2aujg2_1732482453733.csv
NA,null,html-keyboard-response,308,2.0.0,1307185,p3duj2aujg2,manatee,null,"<div style=""font-size:60px; color: black;"">+</div>",NA,NA,NA,NA,NA,NA,NA,NA,NA,NA,NA,/Users/martincz/GitHub/COGS119/group_fa24_massive_memory/analysis/../data/raw_data/p3duj2aujg2_1732482453733.csv
NA,null,image-keyboard-response,309,2.0.0,1309199,p3duj2aujg2,manatee,null,stimuli\STATE\USED\Spatiotable2.jpg,NA,NA,NA,NA,Memory,FALSE,null,NA,NA,NA,NA,/Users/martincz/GitHub/COGS119/group_fa24_massive_memory/analysis/../data/raw_data/p3duj2aujg2_1732482453733.csv
NA,null,html-keyboard-response,310,2.0.0,1309713,p3duj2aujg2,manatee,null,"<div style=""font-size:60px; color: black;"">+</div>",NA,NA,NA,NA,NA,NA,NA,NA,NA,NA,NA,/Users/martincz/GitHub/COGS119/group_fa24_massive_memory/analysis/../data/raw_data/p3duj2aujg2_1732482453733.csv
NA,1243,image-keyboard-response,311,2.0.0,1311728,p3duj2aujg2,manatee,NA,stimuli\STATE\USED\Sbox2.jpg,NA,NA,NA,NA,Memory,TRUE,true,NA,NA,NA,NA,/Users/martincz/GitHub/COGS119/group_fa24_massive_memory/analysis/../data/raw_data/p3duj2aujg2_1732482453733.csv
NA,null,html-keyboard-response,312,2.0.0,1312240,p3duj2aujg2,manatee,null,"<div style=""font-size:60px; color: green;"">+</div>",NA,NA,NA,NA,NA,NA,NA,NA,NA,NA,NA,/Users/martincz/GitHub/COGS119/group_fa24_massive_memory/analysis/../data/raw_data/p3duj2aujg2_1732482453733.csv
NA,3341,html-button-response,313,2.0.0,1315581,p3duj2aujg2,manatee,0,Are you still there?,NA,NA,NA,NA,Attention Check,NA,NA,NA,NA,NA,NA,/Users/martincz/GitHub/COGS119/group_fa24_massive_memory/analysis/../data/raw_data/p3duj2aujg2_1732482453733.csv
NA,null,image-keyboard-response,314,2.0.0,1317585,p3duj2aujg2,manatee,null,stimuli\STATE\USED\Siron2.jpg,NA,NA,NA,NA,Memory,FALSE,null,NA,NA,NA,NA,/Users/martincz/GitHub/COGS119/group_fa24_massive_memory/analysis/../data/raw_data/p3duj2aujg2_1732482453733.csv
NA,null,html-keyboard-response,315,2.0.0,1318096,p3duj2aujg2,manatee,null,"<div style=""font-size:60px; color: black;"">+</div>",NA,NA,NA,NA,NA,NA,NA,NA,NA,NA,NA,/Users/martincz/GitHub/COGS119/group_fa24_massive_memory/analysis/../data/raw_data/p3duj2aujg2_1732482453733.csv
NA,null,image-keyboard-response,316,2.0.0,1320098,p3duj2aujg2,manatee,null,stimuli\EXEMPLAR\USED\Emedal1.jpg,NA,NA,NA,NA,Memory,FALSE,null,NA,NA,NA,NA,/Users/martincz/GitHub/COGS119/group_fa24_massive_memory/analysis/../data/raw_data/p3duj2aujg2_1732482453733.csv
NA,null,html-keyboard-response,317,2.0.0,1320609,p3duj2aujg2,manatee,null,"<div style=""font-size:60px; color: black;"">+</div>",NA,NA,NA,NA,NA,NA,NA,NA,NA,NA,NA,/Users/martincz/GitHub/COGS119/group_fa24_massive_memory/analysis/../data/raw_data/p3duj2aujg2_1732482453733.csv
NA,null,image-keyboard-response,318,2.0.0,1322611,p3duj2aujg2,manatee,null,stimuli\STATE\USED\Sdishwasher1.jpg,NA,NA,NA,NA,Memory,FALSE,null,NA,NA,NA,NA,/Users/martincz/GitHub/COGS119/group_fa24_massive_memory/analysis/../data/raw_data/p3duj2aujg2_1732482453733.csv
NA,null,html-keyboard-response,319,2.0.0,1323117,p3duj2aujg2,manatee,null,"<div style=""font-size:60px; color: black;"">+</div>",NA,NA,NA,NA,NA,NA,NA,NA,NA,NA,NA,/Users/martincz/GitHub/COGS119/group_fa24_massive_memory/analysis/../data/raw_data/p3duj2aujg2_1732482453733.csv
NA,null,image-keyboard-response,320,2.0.0,1325124,p3duj2aujg2,manatee,null,stimuli\STATE\USED\Spotpan2.JPG,NA,NA,NA,NA,Memory,FALSE,null,NA,NA,NA,NA,/Users/martincz/GitHub/COGS119/group_fa24_massive_memory/analysis/../data/raw_data/p3duj2aujg2_1732482453733.csv
NA,null,html-keyboard-response,321,2.0.0,1325639,p3duj2aujg2,manatee,null,"<div style=""font-size:60px; color: black;"">+</div>",NA,NA,NA,NA,NA,NA,NA,NA,NA,NA,NA,/Users/martincz/GitHub/COGS119/group_fa24_massive_memory/analysis/../data/raw_data/p3duj2aujg2_1732482453733.csv
NA,null,image-keyboard-response,322,2.0.0,1327651,p3duj2aujg2,manatee,null,stimuli\EXEMPLAR\USED\Ewineglass2.jpg,NA,NA,NA,NA,Memory,FALSE,null,NA,NA,NA,NA,/Users/martincz/GitHub/COGS119/group_fa24_massive_memory/analysis/../data/raw_data/p3duj2aujg2_1732482453733.csv
NA,null,html-keyboard-response,323,2.0.0,1328167,p3duj2aujg2,manatee,null,"<div style=""font-size:60px; color: black;"">+</div>",NA,NA,NA,NA,NA,NA,NA,NA,NA,NA,NA,/Users/martincz/GitHub/COGS119/group_fa24_massive_memory/analysis/../data/raw_data/p3duj2aujg2_1732482453733.csv
NA,null,image-keyboard-response,324,2.0.0,1330179,p3duj2aujg2,manatee,null,stimuli\EXEMPLAR\USED\Ebrick2.jpg,NA,NA,NA,NA,Memory,FALSE,null,NA,NA,NA,NA,/Users/martincz/GitHub/COGS119/group_fa24_massive_memory/analysis/../data/raw_data/p3duj2aujg2_1732482453733.csv
NA,null,html-keyboard-response,325,2.0.0,1330686,p3duj2aujg2,manatee,null,"<div style=""font-size:60px; color: black;"">+</div>",NA,NA,NA,NA,NA,NA,NA,NA,NA,NA,NA,/Users/martincz/GitHub/COGS119/group_fa24_massive_memory/analysis/../data/raw_data/p3duj2aujg2_1732482453733.csv
NA,null,image-keyboard-response,326,2.0.0,1332691,p3duj2aujg2,manatee,null,stimuli\EXEMPLAR\USED\Ehotairballoon1.jpg,NA,NA,NA,NA,Memory,FALSE,null,NA,NA,NA,NA,/Users/martincz/GitHub/COGS119/group_fa24_massive_memory/analysis/../data/raw_data/p3duj2aujg2_1732482453733.csv
NA,null,html-keyboard-response,327,2.0.0,1333204,p3duj2aujg2,manatee,null,"<div style=""font-size:60px; color: black;"">+</div>",NA,NA,NA,NA,NA,NA,NA,NA,NA,NA,NA,/Users/martincz/GitHub/COGS119/group_fa24_massive_memory/analysis/../data/raw_data/p3duj2aujg2_1732482453733.csv
NA,null,image-keyboard-response,328,2.0.0,1335212,p3duj2aujg2,manatee,null,stimuli\STATE\USED\Spicnicbasket2.jpg,NA,NA,NA,NA,Memory,FALSE,null,NA,NA,NA,NA,/Users/martincz/GitHub/COGS119/group_fa24_massive_memory/analysis/../data/raw_data/p3duj2aujg2_1732482453733.csv
NA,null,html-keyboard-response,329,2.0.0,1335723,p3duj2aujg2,manatee,null,"<div style=""font-size:60px; color: black;"">+</div>",NA,NA,NA,NA,NA,NA,NA,NA,NA,NA,NA,/Users/martincz/GitHub/COGS119/group_fa24_massive_memory/analysis/../data/raw_data/p3duj2aujg2_1732482453733.csv
NA,1110,image-keyboard-response,330,2.0.0,1337732,p3duj2aujg2,manatee,NA,stimuli\EXEMPLAR\USED\Ewineglass2.jpg,NA,NA,NA,NA,Memory,TRUE,true,NA,NA,NA,NA,/Users/martincz/GitHub/COGS119/group_fa24_massive_memory/analysis/../data/raw_data/p3duj2aujg2_1732482453733.csv
NA,null,html-keyboard-response,331,2.0.0,1338239,p3duj2aujg2,manatee,null,"<div style=""font-size:60px; color: green;"">+</div>",NA,NA,NA,NA,NA,NA,NA,NA,NA,NA,NA,/Users/martincz/GitHub/COGS119/group_fa24_massive_memory/analysis/../data/raw_data/p3duj2aujg2_1732482453733.csv
NA,null,image-keyboard-response,332,2.0.0,1340251,p3duj2aujg2,manatee,null,stimuli\EXEMPLAR\USED\Econe2.jpg,NA,NA,NA,NA,Memory,FALSE,null,NA,NA,NA,NA,/Users/martincz/GitHub/COGS119/group_fa24_massive_memory/analysis/../data/raw_data/p3duj2aujg2_1732482453733.csv
NA,null,html-keyboard-response,333,2.0.0,1340761,p3duj2aujg2,manatee,null,"<div style=""font-size:60px; color: black;"">+</div>",NA,NA,NA,NA,NA,NA,NA,NA,NA,NA,NA,/Users/martincz/GitHub/COGS119/group_fa24_massive_memory/analysis/../data/raw_data/p3duj2aujg2_1732482453733.csv
NA,null,image-keyboard-response,334,2.0.0,1342771,p3duj2aujg2,manatee,null,stimuli\EXEMPLAR\USED\Ekayak1.jpg,NA,NA,NA,NA,Memory,FALSE,null,NA,NA,NA,NA,/Users/martincz/GitHub/COGS119/group_fa24_massive_memory/analysis/../data/raw_data/p3duj2aujg2_1732482453733.csv
NA,null,html-keyboard-response,335,2.0.0,1343288,p3duj2aujg2,manatee,null,"<div style=""font-size:60px; color: black;"">+</div>",NA,NA,NA,NA,NA,NA,NA,NA,NA,NA,NA,/Users/martincz/GitHub/COGS119/group_fa24_massive_memory/analysis/../data/raw_data/p3duj2aujg2_1732482453733.csv
NA,null,image-keyboard-response,336,2.0.0,1345301,p3duj2aujg2,manatee,null,stimuli\EXEMPLAR\USED\Ebicycle2.jpg,NA,NA,NA,NA,Memory,FALSE,null,NA,NA,NA,NA,/Users/martincz/GitHub/COGS119/group_fa24_massive_memory/analysis/../data/raw_data/p3duj2aujg2_1732482453733.csv
NA,null,html-keyboard-response,337,2.0.0,1345815,p3duj2aujg2,manatee,null,"<div style=""font-size:60px; color: black;"">+</div>",NA,NA,NA,NA,NA,NA,NA,NA,NA,NA,NA,/Users/martincz/GitHub/COGS119/group_fa24_massive_memory/analysis/../data/raw_data/p3duj2aujg2_1732482453733.csv
NA,null,image-keyboard-response,338,2.0.0,1347822,p3duj2aujg2,manatee,null,stimuli\STATE\USED\Sbrushes1.jpg,NA,NA,NA,NA,Memory,FALSE,null,NA,NA,NA,NA,/Users/martincz/GitHub/COGS119/group_fa24_massive_memory/analysis/../data/raw_data/p3duj2aujg2_1732482453733.csv
NA,null,html-keyboard-response,339,2.0.0,1348329,p3duj2aujg2,manatee,null,"<div style=""font-size:60px; color: black;"">+</div>",NA,NA,NA,NA,NA,NA,NA,NA,NA,NA,NA,/Users/martincz/GitHub/COGS119/group_fa24_massive_memory/analysis/../data/raw_data/p3duj2aujg2_1732482453733.csv
NA,1104,image-keyboard-response,340,2.0.0,1350333,p3duj2aujg2,manatee,NA,stimuli\EXEMPLAR\USED\Econe2.jpg,NA,NA,NA,NA,Memory,TRUE,true,NA,NA,NA,NA,/Users/martincz/GitHub/COGS119/group_fa24_massive_memory/analysis/../data/raw_data/p3duj2aujg2_1732482453733.csv
NA,null,html-keyboard-response,341,2.0.0,1350843,p3duj2aujg2,manatee,null,"<div style=""font-size:60px; color: green;"">+</div>",NA,NA,NA,NA,NA,NA,NA,NA,NA,NA,NA,/Users/martincz/GitHub/COGS119/group_fa24_massive_memory/analysis/../data/raw_data/p3duj2aujg2_1732482453733.csv
NA,null,image-keyboard-response,342,2.0.0,1352858,p3duj2aujg2,manatee,null,stimuli\STATE\USED\Swaffleiron2.jpg,NA,NA,NA,NA,Memory,FALSE,null,NA,NA,NA,NA,/Users/martincz/GitHub/COGS119/group_fa24_massive_memory/analysis/../data/raw_data/p3duj2aujg2_1732482453733.csv
NA,null,html-keyboard-response,343,2.0.0,1353362,p3duj2aujg2,manatee,null,"<div style=""font-size:60px; color: black;"">+</div>",NA,NA,NA,NA,NA,NA,NA,NA,NA,NA,NA,/Users/martincz/GitHub/COGS119/group_fa24_massive_memory/analysis/../data/raw_data/p3duj2aujg2_1732482453733.csv
NA,null,image-keyboard-response,344,2.0.0,1355380,p3duj2aujg2,manatee,null,stimuli\STATE\USED\Sclipboard2.jpg,NA,NA,NA,NA,Memory,FALSE,null,NA,NA,NA,NA,/Users/martincz/GitHub/COGS119/group_fa24_massive_memory/analysis/../data/raw_data/p3duj2aujg2_1732482453733.csv
NA,null,html-keyboard-response,345,2.0.0,1355886,p3duj2aujg2,manatee,null,"<div style=""font-size:60px; color: black;"">+</div>",NA,NA,NA,NA,NA,NA,NA,NA,NA,NA,NA,/Users/martincz/GitHub/COGS119/group_fa24_massive_memory/analysis/../data/raw_data/p3duj2aujg2_1732482453733.csv
NA,null,image-keyboard-response,346,2.0.0,1357892,p3duj2aujg2,manatee,null,stimuli\STATE\USED\Sredcabbage1.jpg,NA,NA,NA,NA,Memory,FALSE,null,NA,NA,NA,NA,/Users/martincz/GitHub/COGS119/group_fa24_massive_memory/analysis/../data/raw_data/p3duj2aujg2_1732482453733.csv
NA,null,html-keyboard-response,347,2.0.0,1358402,p3duj2aujg2,manatee,null,"<div style=""font-size:60px; color: black;"">+</div>",NA,NA,NA,NA,NA,NA,NA,NA,NA,NA,NA,/Users/martincz/GitHub/COGS119/group_fa24_massive_memory/analysis/../data/raw_data/p3duj2aujg2_1732482453733.csv
NA,12368,html-keyboard-response,348,2.0.0,1370771,p3duj2aujg2,manatee,NA,"
          <p>In the next part of this experiment, you will see 2 images. Please select the image that you recall from the image stream.</p>
          <p>You will also rate your confidence for each image you recall.</p>
          <p>Press any key to start.</p>
",NA,NA,NA,NA,NA,NA,NA,NA,NA,NA,NA,/Users/martincz/GitHub/COGS119/group_fa24_massive_memory/analysis/../data/raw_data/p3duj2aujg2_1732482453733.csv
NA,1599,html-button-response,349,2.0.0,1372371,p3duj2aujg2,manatee,1,Which of these items did you see before?,NA,NA,NA,NA,Test,NA,true,"[""stimuli\\EXEMPLAR\\USED\\Ewheelchair2.jpg"",""stimuli\\EXEMPLAR\\USED\\Ewheelchair1.jpg""]",stimuli\EXEMPLAR\USED\Ewheelchair1.jpg,stimuli\EXEMPLAR\USED\Ewheelchair1.jpg,NA,/Users/martincz/GitHub/COGS119/group_fa24_massive_memory/analysis/../data/raw_data/p3duj2aujg2_1732482453733.csv
NA,1920,image-slider-response,350,2.0.0,1374294,p3duj2aujg2,manatee,5,stimuli\EXEMPLAR\USED\Ewheelchair1.jpg,NA,NA,NA,NA,NA,NA,NA,NA,NA,NA,3,/Users/martincz/GitHub/COGS119/group_fa24_massive_memory/analysis/../data/raw_data/p3duj2aujg2_1732482453733.csv
NA,876,html-button-response,351,2.0.0,1375171,p3duj2aujg2,manatee,0,Which of these items did you see before?,NA,NA,NA,NA,Test,NA,true,"[""stimuli\\STATE\\USED\\Sapple1.jpg"",""stimuli\\STATE\\USED\\Sapple2.jpg""]",stimuli\STATE\USED\Sapple1.jpg,stimuli\STATE\USED\Sapple1.jpg,NA,/Users/martincz/GitHub/COGS119/group_fa24_massive_memory/analysis/../data/raw_data/p3duj2aujg2_1732482453733.csv
NA,1415,image-slider-response,352,2.0.0,1376586,p3duj2aujg2,manatee,5,stimuli\STATE\USED\Sapple1.jpg,NA,NA,NA,NA,NA,NA,NA,NA,NA,NA,3,/Users/martincz/GitHub/COGS119/group_fa24_massive_memory/analysis/../data/raw_data/p3duj2aujg2_1732482453733.csv
NA,1654,html-button-response,353,2.0.0,1378242,p3duj2aujg2,manatee,1,Which of these items did you see before?,NA,NA,NA,NA,Test,NA,true,"[""stimuli\\STATE\\USED\\Sbrie2.JPG"",""stimuli\\STATE\\USED\\Sbrie1.JPG""]",stimuli\STATE\USED\Sbrie1.JPG,stimuli\STATE\USED\Sbrie1.JPG,NA,/Users/martincz/GitHub/COGS119/group_fa24_massive_memory/analysis/../data/raw_data/p3duj2aujg2_1732482453733.csv
NA,2811,image-slider-response,354,2.0.0,1381054,p3duj2aujg2,manatee,5,stimuli\STATE\USED\Sbrie1.JPG,NA,NA,NA,NA,NA,NA,NA,NA,NA,NA,3,/Users/martincz/GitHub/COGS119/group_fa24_massive_memory/analysis/../data/raw_data/p3duj2aujg2_1732482453733.csv
NA,2162,html-button-response,355,2.0.0,1383217,p3duj2aujg2,manatee,0,Which of these items did you see before?,NA,NA,NA,NA,Test,NA,true,"[""stimuli\\STATE\\USED\\Srhino2.jpg"",""stimuli\\STATE\\USED\\Srhino1.jpg""]",stimuli\STATE\USED\Srhino2.jpg,stimuli\STATE\USED\Srhino2.jpg,NA,/Users/martincz/GitHub/COGS119/group_fa24_massive_memory/analysis/../data/raw_data/p3duj2aujg2_1732482453733.csv
NA,2451,image-slider-response,356,2.0.0,1385670,p3duj2aujg2,manatee,5,stimuli\STATE\USED\Srhino2.jpg,NA,NA,NA,NA,NA,NA,NA,NA,NA,NA,3,/Users/martincz/GitHub/COGS119/group_fa24_massive_memory/analysis/../data/raw_data/p3duj2aujg2_1732482453733.csv
NA,1001,html-button-response,357,2.0.0,1386673,p3duj2aujg2,manatee,0,Which of these items did you see before?,NA,NA,NA,NA,Test,NA,true,"[""stimuli\\EXEMPLAR\\USED\\Ebrick2.jpg"",""stimuli\\EXEMPLAR\\USED\\Ebrick1.jpg""]",stimuli\EXEMPLAR\USED\Ebrick2.jpg,stimuli\EXEMPLAR\USED\Ebrick2.jpg,NA,/Users/martincz/GitHub/COGS119/group_fa24_massive_memory/analysis/../data/raw_data/p3duj2aujg2_1732482453733.csv
NA,1395,image-slider-response,358,2.0.0,1388069,p3duj2aujg2,manatee,5,stimuli\EXEMPLAR\USED\Ebrick2.jpg,NA,NA,NA,NA,NA,NA,NA,NA,NA,NA,3,/Users/martincz/GitHub/COGS119/group_fa24_massive_memory/analysis/../data/raw_data/p3duj2aujg2_1732482453733.csv
NA,1162,html-button-response,359,2.0.0,1389233,p3duj2aujg2,manatee,0,Which of these items did you see before?,NA,NA,NA,NA,Test,NA,true,"[""stimuli\\EXEMPLAR\\USED\\Espraybottle1.jpg"",""stimuli\\EXEMPLAR\\USED\\Espraybottle2.jpg""]",stimuli\EXEMPLAR\USED\Espraybottle1.jpg,stimuli\EXEMPLAR\USED\Espraybottle1.jpg,NA,/Users/martincz/GitHub/COGS119/group_fa24_massive_memory/analysis/../data/raw_data/p3duj2aujg2_1732482453733.csv
NA,1293,image-slider-response,360,2.0.0,1390528,p3duj2aujg2,manatee,5,stimuli\EXEMPLAR\USED\Espraybottle1.jpg,NA,NA,NA,NA,NA,NA,NA,NA,NA,NA,3,/Users/martincz/GitHub/COGS119/group_fa24_massive_memory/analysis/../data/raw_data/p3duj2aujg2_1732482453733.csv
NA,934,html-button-response,361,2.0.0,1391462,p3duj2aujg2,manatee,0,Which of these items did you see before?,NA,NA,NA,NA,Test,NA,true,"[""stimuli\\STATE\\USED\\Sbriefcasemetal1.JPG"",""stimuli\\STATE\\USED\\Sbriefcasemetal2.JPG""]",stimuli\STATE\USED\Sbriefcasemetal1.JPG,stimuli\STATE\USED\Sbriefcasemetal1.JPG,NA,/Users/martincz/GitHub/COGS119/group_fa24_massive_memory/analysis/../data/raw_data/p3duj2aujg2_1732482453733.csv
NA,1264,image-slider-response,362,2.0.0,1392727,p3duj2aujg2,manatee,5,stimuli\STATE\USED\Sbriefcasemetal1.JPG,NA,NA,NA,NA,NA,NA,NA,NA,NA,NA,3,/Users/martincz/GitHub/COGS119/group_fa24_massive_memory/analysis/../data/raw_data/p3duj2aujg2_1732482453733.csv
